"trial","condition","onset","RT","response","reversed","syllables","item","subjectID","run","instruction","construct"
1,3,5.053,1.881,1,0,2,"nervous","FP001","run1","self","ill-being"
2,3,9.996,2.482,0,0,3,"unhappy","FP001","run1","self","ill-being"
3,2,15.092,3.458,1,0,4,"feel encouraged","FP001","run1","self","social"
4,2,20.047,1.607,1,0,3,"have good friends","FP001","run1","self","social"
5,1,25.062,1.984,1,0,6,"live a meaningful life","FP001","run1","self","well-being"
6,1,30.012,1.457,1,0,2,"happy","FP001","run1","self","well-being"
7,4,44.712,1.726,1,0,2,"joyful","FP001","run1","change","well-being"
8,4,49.651,1.995,1,0,3,"capable","FP001","run1","change","well-being"
9,6,54.745,1.541,1,0,3,"overwhelmed","FP001","run1","change","ill-being"
10,6,59.691,1.243,1,0,2,"lonely","FP001","run1","change","ill-being"
11,5,64.861,2.656,1,0,3,"am cared for","FP001","run1","change","social"
12,6,69.845,2.177,1,0,2,"anxious","FP001","run1","change","ill-being"
13,3,84.894,1.704,1,0,2,"tired","FP001","run1","self","ill-being"
14,3,89.845,1.553,2,0,2,"depressed","FP001","run1","self","ill-being"
15,1,94.829,1.209,1,0,3,"like myself","FP001","run1","self","well-being"
16,1,99.92,2.286,2,0,2,"cheerful","FP001","run1","self","well-being"
17,2,105.258,1.316,1,0,5,"comfortable with friends","FP001","run1","self","social"
18,3,110.244,1.754,2,0,5,"feel invisible","FP001","run1","self","ill-being"
19,6,124.939,1.595,1,0,1,"stressed","FP001","run1","change","ill-being"
20,4,130.109,2.201,1,0,4,"optimistic","FP001","run1","change","well-being"
21,5,135.094,1.832,1,1,3,"neglected","FP001","run1","change","social"
22,5,140.078,2.432,1,0,6,"have warm relationships","FP001","run1","change","social"
23,4,145.061,2.785,1,0,3,"achieve goals","FP001","run1","change","well-being"
24,6,150.006,2.152,1,0,5,"feel unimportant","FP001","run1","change","ill-being"
25,2,164.711,1.359,1,0,5,"have support systems","FP001","run1","self","social"
26,1,169.654,1.712,1,0,6,"live a purposeful life","FP001","run1","self","well-being"
27,1,174.594,1.62,1,0,5,"satisfied with life","FP001","run1","self","well-being"
28,3,179.577,2.525,2,0,4,"feel rejected","FP001","run1","self","ill-being"
29,2,184.594,2.708,2,1,4,"isolated","FP001","run1","self","social"
30,2,189.535,1.639,2,1,5,"alienated","FP001","run1","self","social"
31,5,204.277,2.937,1,0,2,"trusted","FP001","run1","change","social"
32,5,209.215,3.623,2,0,1,"loved","FP001","run1","change","social"
33,6,214.236,2.77,1,0,5,"unable to cope","FP001","run1","change","ill-being"
34,5,219.176,1.774,1,0,2,"well-liked","FP001","run1","change","social"
35,4,224.51,1.936,1,0,5,"full of energy","FP001","run1","change","well-being"
36,4,229.461,3.217,1,0,1,"proud","FP001","run1","change","well-being"
1,3,5.049,1.731,2,0,3,"overwhelmed","FP001","run2","self","ill-being"
2,3,10.035,2.282,1,0,2,"lonely","FP001","run2","self","ill-being"
3,2,15.356,2.129,1,0,3,"am cared for","FP001","run2","self","social"
4,2,20.341,1.608,2,1,3,"neglected","FP001","run2","self","social"
5,1,25.429,1.919,2,0,2,"joyful","FP001","run2","self","well-being"
6,1,30.374,1.11,1,0,3,"capable","FP001","run2","self","well-being"
7,4,45.191,4.07,1,0,6,"live a meaningful life","FP001","run2","change","well-being"
8,4,50.13,1.482,1,0,2,"happy","FP001","run2","change","well-being"
9,6,55.151,1.518,1,0,2,"nervous","FP001","run2","change","ill-being"
10,6,60.171,2.354,1,0,3,"unhappy","FP001","run2","change","ill-being"
11,5,65.19,4.678,2,0,4,"feel encouraged","FP001","run2","change","social"
12,6,70.273,3.348,1,0,2,"tired","FP001","run2","change","ill-being"
13,3,84.973,1.719,2,0,2,"anxious","FP001","run2","self","ill-being"
14,3,89.956,1.448,2,0,1,"stressed","FP001","run2","self","ill-being"
15,1,94.896,2.708,1,0,4,"optimistic","FP001","run2","self","well-being"
16,1,99.839,1.941,1,0,3,"achieve goals","FP001","run2","self","well-being"
17,2,104.823,2.774,1,0,6,"have warm relationships","FP001","run2","self","social"
18,3,109.774,4.087,2,0,5,"feel unimportant","FP001","run2","self","ill-being"
19,6,124.573,1.68,1,0,2,"depressed","FP001","run2","change","ill-being"
20,4,129.553,1.979,1,0,3,"like myself","FP001","run2","change","well-being"
21,5,134.573,1.864,1,0,3,"have good friends","FP001","run2","change","social"
22,5,139.673,3.492,2,0,5,"comfortable with friends","FP001","run2","change","social"
23,4,144.998,3.974,2,0,2,"cheerful","FP001","run2","change","well-being"
24,6,149.987,1.946,1,0,5,"feel invisible","FP001","run2","change","ill-being"
25,2,164.639,1.654,1,0,2,"trusted","FP001","run2","self","social"
26,1,169.583,1.43,2,0,5,"full of energy","FP001","run2","self","well-being"
27,1,174.537,1.012,1,0,1,"proud","FP001","run2","self","well-being"
28,3,179.556,1.345,2,0,5,"unable to cope","FP001","run2","self","ill-being"
29,2,184.493,1.439,1,0,1,"loved","FP001","run2","self","social"
30,2,189.471,1.445,1,0,2,"well-liked","FP001","run2","self","social"
31,5,204.139,2.466,1,0,5,"have support systems","FP001","run2","change","social"
32,5,209.304,1.468,1,1,4,"isolated","FP001","run2","change","social"
33,6,214.248,2.252,1,0,4,"feel rejected","FP001","run2","change","ill-being"
34,5,219.235,1.249,1,1,5,"alienated","FP001","run2","change","social"
35,4,224.405,NA,0,0,6,"live a purposeful life","FP001","run2","change","well-being"
36,4,229.387,0.097,1,0,5,"satisfied with life","FP001","run2","change","well-being"
1,3,5.052,1.459,1,0,3,"unhappy","FP002","run1","self","ill-being"
2,3,9.994,1.725,2,0,1,"stressed","FP002","run1","self","ill-being"
3,2,14.977,1.133,1,0,2,"well-liked","FP002","run1","self","social"
4,2,19.924,1.859,1,0,5,"have support systems","FP002","run1","self","social"
5,1,25.26,1.179,1,0,3,"achieve goals","FP002","run1","self","well-being"
6,1,30.21,1.444,1,0,2,"joyful","FP002","run1","self","well-being"
7,4,44.943,1.976,2,0,2,"happy","FP002","run1","change","well-being"
8,4,49.893,2.217,1,0,4,"optimistic","FP002","run1","change","well-being"
9,6,54.91,2.049,1,0,3,"overwhelmed","FP002","run1","change","ill-being"
10,6,59.927,1.952,1,0,2,"nervous","FP002","run1","change","ill-being"
11,5,64.872,3.303,1,1,5,"alienated","FP002","run1","change","social"
12,6,69.859,2.803,1,0,5,"feel invisible","FP002","run1","change","ill-being"
13,3,84.738,2.653,1,0,2,"tired","FP002","run1","self","ill-being"
14,3,89.758,1.441,2,0,5,"unable to cope","FP002","run1","self","ill-being"
15,1,94.861,1.818,1,0,5,"satisfied with life","FP002","run1","self","well-being"
16,1,99.875,2.323,1,0,6,"live a purposeful life","FP002","run1","self","well-being"
17,2,105.201,1.205,1,0,3,"have good friends","FP002","run1","self","social"
18,3,110.292,1.53,2,0,2,"anxious","FP002","run1","self","ill-being"
19,6,124.959,1.983,1,0,2,"depressed","FP002","run1","change","ill-being"
20,4,129.903,1.32,1,0,2,"cheerful","FP002","run1","change","well-being"
21,5,134.856,2.614,2,0,4,"feel encouraged","FP002","run1","change","social"
22,5,139.875,2.763,1,1,4,"isolated","FP002","run1","change","social"
23,4,144.825,3.237,2,0,3,"capable","FP002","run1","change","well-being"
24,6,149.808,2.43,1,0,5,"feel unimportant","FP002","run1","change","ill-being"
25,2,164.475,1.444,1,0,5,"comfortable with friends","FP002","run1","self","social"
26,1,169.457,1.453,1,0,5,"full of energy","FP002","run1","self","well-being"
27,1,174.774,1.416,1,0,3,"like myself","FP002","run1","self","well-being"
28,3,179.755,1.331,2,0,2,"lonely","FP002","run1","self","ill-being"
29,2,184.709,1.258,1,0,1,"loved","FP002","run1","self","social"
30,2,189.724,1.059,2,1,3,"neglected","FP002","run1","self","social"
31,5,204.423,2.863,2,0,3,"am cared for","FP002","run1","change","social"
32,5,209.375,2.032,1,0,6,"have warm relationships","FP002","run1","change","social"
33,6,214.358,3.561,1,0,4,"feel rejected","FP002","run1","change","ill-being"
34,5,219.525,2.122,1,0,2,"trusted","FP002","run1","change","social"
35,4,224.471,2.464,2,0,6,"live a meaningful life","FP002","run1","change","well-being"
36,4,229.575,2.312,2,0,1,"proud","FP002","run1","change","well-being"
1,3,5.052,2.434,2,0,3,"overwhelmed","FP002","run2","self","ill-being"
2,3,10.087,1.496,1,0,2,"nervous","FP002","run2","self","ill-being"
3,2,15.036,1.378,2,1,5,"alienated","FP002","run2","self","social"
4,2,20.019,1.131,1,0,4,"feel encouraged","FP002","run2","self","social"
5,1,24.964,0.946,1,0,2,"happy","FP002","run2","self","well-being"
6,1,29.918,1.032,1,0,4,"optimistic","FP002","run2","self","well-being"
7,4,44.613,2.266,2,0,3,"achieve goals","FP002","run2","change","well-being"
8,4,49.552,2.43,2,0,2,"joyful","FP002","run2","change","well-being"
9,6,54.534,1.552,1,0,3,"unhappy","FP002","run2","change","ill-being"
10,6,59.518,1.552,1,0,1,"stressed","FP002","run2","change","ill-being"
11,5,64.502,2.976,1,0,2,"well-liked","FP002","run2","change","social"
12,6,69.668,1.282,1,0,2,"tired","FP002","run2","change","ill-being"
13,3,84.368,1.47,2,0,5,"feel invisible","FP002","run2","self","ill-being"
14,3,89.461,1.242,2,0,2,"depressed","FP002","run2","self","ill-being"
15,1,94.401,1.013,1,0,2,"cheerful","FP002","run2","self","well-being"
16,1,99.501,1.225,1,0,3,"capable","FP002","run2","self","well-being"
17,2,104.438,1.08,2,1,4,"isolated","FP002","run2","self","social"
18,3,109.458,1.676,2,0,5,"feel unimportant","FP002","run2","self","ill-being"
19,6,124.168,3.126,1,0,5,"unable to cope","FP002","run2","change","ill-being"
20,4,129.333,1.865,2,0,5,"satisfied with life","FP002","run2","change","well-being"
21,5,134.277,1.777,2,0,5,"have support systems","FP002","run2","change","social"
22,5,139.297,2.126,2,0,3,"have good friends","FP002","run2","change","social"
23,4,144.401,3.525,2,0,6,"live a purposeful life","FP002","run2","change","well-being"
24,6,149.35,1.744,1,0,2,"anxious","FP002","run2","change","ill-being"
25,2,164.049,1.157,1,0,3,"am cared for","FP002","run2","self","social"
26,1,169.368,1.902,1,0,6,"live a meaningful life","FP002","run2","self","well-being"
27,1,174.384,1.622,1,0,1,"proud","FP002","run2","self","well-being"
28,3,179.325,1.337,2,0,4,"feel rejected","FP002","run2","self","ill-being"
29,2,184.35,1.168,1,0,6,"have warm relationships","FP002","run2","self","social"
30,2,189.666,1.076,1,0,2,"trusted","FP002","run2","self","social"
31,5,204.366,2.032,2,0,5,"comfortable with friends","FP002","run2","change","social"
32,5,209.347,1.531,2,0,1,"loved","FP002","run2","change","social"
33,6,214.366,1.464,1,0,2,"lonely","FP002","run2","change","ill-being"
34,5,219.466,2.596,1,1,3,"neglected","FP002","run2","change","social"
35,4,224.408,2.838,1,0,5,"full of energy","FP002","run2","change","well-being"
36,4,229.428,2.162,2,0,3,"like myself","FP002","run2","change","well-being"
1,3,5.08,2.022,2,0,5,"feel unimportant","FP003","run1","self","ill-being"
2,3,10.18,1.594,2,0,4,"feel rejected","FP003","run1","self","ill-being"
3,2,15.506,1.267,1,0,5,"have support systems","FP003","run1","self","social"
4,2,20.494,1.551,1,0,2,"well-liked","FP003","run1","self","social"
5,1,25.447,1.238,1,0,2,"happy","FP003","run1","self","well-being"
6,1,30.396,1.857,1,0,5,"full of energy","FP003","run1","self","well-being"
7,4,45.094,1.991,1,0,3,"like myself","FP003","run1","change","well-being"
8,4,50.046,2.456,1,0,6,"live a purposeful life","FP003","run1","change","well-being"
9,6,55.029,1.105,1,0,1,"stressed","FP003","run1","change","ill-being"
10,6,59.971,1.362,1,0,2,"depressed","FP003","run1","change","ill-being"
11,5,65.145,1.3,1,0,5,"comfortable with friends","FP003","run1","change","social"
12,6,70.162,1.963,1,0,5,"unable to cope","FP003","run1","change","ill-being"
13,3,84.888,1.429,1,0,2,"tired","FP003","run1","self","ill-being"
14,3,89.829,1.12,2,0,2,"anxious","FP003","run1","self","ill-being"
15,1,94.812,1.201,2,0,2,"cheerful","FP003","run1","self","well-being"
16,1,99.795,1.538,2,0,4,"optimistic","FP003","run1","self","well-being"
17,2,104.886,1.432,2,1,5,"alienated","FP003","run1","self","social"
18,3,109.862,0.895,2,0,2,"nervous","FP003","run1","self","ill-being"
19,6,124.562,1.844,1,0,3,"unhappy","FP003","run1","change","ill-being"
20,4,129.504,1.413,1,0,5,"satisfied with life","FP003","run1","change","well-being"
21,5,134.444,1.137,1,0,3,"am cared for","FP003","run1","change","social"
22,5,139.461,1.272,1,0,2,"trusted","FP003","run1","change","social"
23,4,144.413,1.32,1,0,3,"capable","FP003","run1","change","well-being"
24,6,149.512,1.118,1,0,5,"feel invisible","FP003","run1","change","ill-being"
25,2,164.211,2.482,2,0,6,"have warm relationships","FP003","run1","self","social"
26,1,169.149,1.48,1,0,2,"joyful","FP003","run1","self","well-being"
27,1,174.17,1.155,1,0,6,"live a meaningful life","FP003","run1","self","well-being"
28,3,179.111,2.247,1,0,2,"lonely","FP003","run1","self","ill-being"
29,2,184.06,0.921,1,0,1,"loved","FP003","run1","self","social"
30,2,189.381,1.032,2,1,3,"neglected","FP003","run1","self","social"
31,5,204.043,1.379,1,0,3,"have good friends","FP003","run1","change","social"
32,5,209.027,1.459,1,1,4,"isolated","FP003","run1","change","social"
33,6,214.348,1.321,1,0,3,"overwhelmed","FP003","run1","change","ill-being"
34,5,219.328,2.342,1,0,4,"feel encouraged","FP003","run1","change","social"
35,4,224.494,1.311,1,0,1,"proud","FP003","run1","change","well-being"
36,4,229.476,1.481,1,0,3,"achieve goals","FP003","run1","change","well-being"
1,3,5.055,1.336,1,0,1,"stressed","FP003","run2","self","ill-being"
2,3,10.042,0.878,2,0,2,"depressed","FP003","run2","self","ill-being"
3,2,15.229,1.218,1,0,5,"comfortable with friends","FP003","run2","self","social"
4,2,20.212,1.491,1,0,3,"am cared for","FP003","run2","self","social"
5,1,25.162,1.134,1,0,3,"like myself","FP003","run2","self","well-being"
6,1,30.262,1.258,1,0,6,"live a purposeful life","FP003","run2","self","well-being"
7,4,45.296,1.191,1,0,2,"happy","FP003","run2","change","well-being"
8,4,50.237,1.642,1,0,5,"full of energy","FP003","run2","change","well-being"
9,6,55.342,1.666,1,0,5,"feel unimportant","FP003","run2","change","ill-being"
10,6,60.329,0.999,1,0,4,"feel rejected","FP003","run2","change","ill-being"
11,5,65.648,1.447,1,0,5,"have support systems","FP003","run2","change","social"
12,6,70.595,1.004,1,0,2,"tired","FP003","run2","change","ill-being"
13,3,85.328,1.647,2,0,5,"unable to cope","FP003","run2","self","ill-being"
14,3,90.345,1.542,2,0,3,"unhappy","FP003","run2","self","ill-being"
15,1,95.329,2.047,1,0,5,"satisfied with life","FP003","run2","self","well-being"
16,1,100.308,0.892,1,0,3,"capable","FP003","run2","self","well-being"
17,2,105.478,1.138,1,0,2,"trusted","FP003","run2","self","social"
18,3,110.462,1.498,2,0,5,"feel invisible","FP003","run2","self","ill-being"
19,6,125.509,1.37,1,0,2,"anxious","FP003","run2","change","ill-being"
20,4,130.528,0.831,1,0,2,"cheerful","FP003","run2","change","well-being"
21,5,135.479,2.313,1,0,2,"well-liked","FP003","run2","change","social"
22,5,140.461,1.13,1,1,5,"alienated","FP003","run2","change","social"
23,4,145.44,1.808,2,0,4,"optimistic","FP003","run2","change","well-being"
24,6,150.393,1.335,1,0,2,"nervous","FP003","run2","change","ill-being"
25,2,165.204,1.612,1,0,3,"have good friends","FP003","run2","self","social"
26,1,170.224,0.896,1,0,1,"proud","FP003","run2","self","well-being"
27,1,175.178,1.126,1,0,3,"achieve goals","FP003","run2","self","well-being"
28,3,180.161,1.342,2,0,3,"overwhelmed","FP003","run2","self","ill-being"
29,2,185.177,1.407,2,1,4,"isolated","FP003","run2","self","social"
30,2,190.122,1.494,1,0,4,"feel encouraged","FP003","run2","self","social"
31,5,204.777,1.399,1,0,6,"have warm relationships","FP003","run2","change","social"
32,5,209.751,1.32,1,0,1,"loved","FP003","run2","change","social"
33,6,214.688,0.871,1,0,2,"lonely","FP003","run2","change","ill-being"
34,5,219.626,1.493,1,1,3,"neglected","FP003","run2","change","social"
35,4,224.61,0.853,1,0,2,"joyful","FP003","run2","change","well-being"
36,4,229.626,1.342,1,0,6,"live a meaningful life","FP003","run2","change","well-being"
1,3,5.081,1.848,2,0,3,"overwhelmed","FP004","run1","self","ill-being"
2,3,10.064,1.481,2,0,5,"feel unimportant","FP004","run1","self","ill-being"
3,2,15.009,0.969,2,1,3,"neglected","FP004","run1","self","social"
4,2,20.178,1.031,1,0,3,"have good friends","FP004","run1","self","social"
5,1,25.164,0.758,1,0,2,"cheerful","FP004","run1","self","well-being"
6,1,30.198,0.868,1,0,3,"like myself","FP004","run1","self","well-being"
7,4,44.863,1.795,2,0,3,"capable","FP004","run1","change","well-being"
8,4,49.847,2.051,2,0,6,"live a meaningful life","FP004","run1","change","well-being"
9,6,55.17,1.863,1,0,5,"unable to cope","FP004","run1","change","ill-being"
10,6,60.157,1.892,1,0,2,"anxious","FP004","run1","change","ill-being"
11,5,65.11,2.075,2,1,5,"alienated","FP004","run1","change","social"
12,6,70.214,1.579,1,0,2,"lonely","FP004","run1","change","ill-being"
13,3,84.947,1.159,2,0,5,"feel invisible","FP004","run1","self","ill-being"
14,3,89.895,1.114,2,0,4,"feel rejected","FP004","run1","self","ill-being"
15,1,94.847,0.97,1,0,5,"satisfied with life","FP004","run1","self","well-being"
16,1,99.83,0.74,1,0,2,"joyful","FP004","run1","self","well-being"
17,2,104.862,0.939,1,0,5,"comfortable with friends","FP004","run1","self","social"
18,3,109.959,0.97,2,0,2,"depressed","FP004","run1","self","ill-being"
19,6,124.662,1.355,1,0,2,"nervous","FP004","run1","change","ill-being"
20,4,129.607,1.09,1,0,4,"optimistic","FP004","run1","change","well-being"
21,5,134.594,3.535,1,0,3,"am cared for","FP004","run1","change","social"
22,5,139.545,1.392,1,0,2,"well-liked","FP004","run1","change","social"
23,4,144.562,1.399,1,0,2,"happy","FP004","run1","change","well-being"
24,6,149.504,1.033,1,0,2,"tired","FP004","run1","change","ill-being"
25,2,164.262,1.387,1,0,6,"have warm relationships","FP004","run1","self","social"
26,1,169.213,0.821,1,0,1,"proud","FP004","run1","self","well-being"
27,1,174.155,0.982,1,0,6,"live a purposeful life","FP004","run1","self","well-being"
28,3,179.095,1.698,1,0,1,"stressed","FP004","run1","self","ill-being"
29,2,184.078,1.027,1,0,4,"feel encouraged","FP004","run1","self","social"
30,2,189.4,1.049,1,0,2,"trusted","FP004","run1","self","social"
31,5,204.093,1.652,1,1,4,"isolated","FP004","run1","change","social"
32,5,209.196,1.294,1,0,1,"loved","FP004","run1","change","social"
33,6,214.178,1.383,1,0,3,"unhappy","FP004","run1","change","ill-being"
34,5,219.122,2.488,1,0,5,"have support systems","FP004","run1","change","social"
35,4,224.076,0.982,1,0,5,"full of energy","FP004","run1","change","well-being"
36,4,229.411,2.262,2,0,3,"achieve goals","FP004","run1","change","well-being"
1,3,5.074,1.39,2,0,5,"unable to cope","FP004","run2","self","ill-being"
2,3,10.025,1.198,2,0,2,"anxious","FP004","run2","self","ill-being"
3,2,15.126,1.394,2,1,5,"alienated","FP004","run2","self","social"
4,2,20.125,0.923,1,0,3,"am cared for","FP004","run2","self","social"
5,1,25.125,0.722,1,0,3,"capable","FP004","run2","self","well-being"
6,1,30.092,1.043,1,0,6,"live a meaningful life","FP004","run2","self","well-being"
7,4,44.761,1.279,1,0,2,"cheerful","FP004","run2","change","well-being"
8,4,49.71,2.129,1,0,3,"like myself","FP004","run2","change","well-being"
9,6,54.812,3.324,1,0,3,"overwhelmed","FP004","run2","change","ill-being"
10,6,59.762,3.174,1,0,5,"feel unimportant","FP004","run2","change","ill-being"
11,5,65.095,2.169,1,1,3,"neglected","FP004","run2","change","social"
12,6,70.095,2.497,2,0,5,"feel invisible","FP004","run2","change","ill-being"
13,3,84.846,1.298,2,0,2,"lonely","FP004","run2","self","ill-being"
14,3,89.798,1.338,2,0,2,"nervous","FP004","run2","self","ill-being"
15,1,94.748,0.924,1,0,4,"optimistic","FP004","run2","self","well-being"
16,1,99.731,1.02,1,0,2,"happy","FP004","run2","self","well-being"
17,2,104.682,1.358,1,0,2,"well-liked","FP004","run2","self","social"
18,3,109.665,1.334,1,0,2,"tired","FP004","run2","self","ill-being"
19,6,124.333,1.643,1,0,4,"feel rejected","FP004","run2","change","ill-being"
20,4,129.283,3.188,1,0,5,"satisfied with life","FP004","run2","change","well-being"
21,5,134.283,1.917,1,0,3,"have good friends","FP004","run2","change","social"
22,5,139.284,1.812,2,0,5,"comfortable with friends","FP004","run2","change","social"
23,4,144.601,1.998,1,0,2,"joyful","FP004","run2","change","well-being"
24,6,149.702,2.21,1,0,2,"depressed","FP004","run2","change","ill-being"
25,2,164.452,1.099,2,1,4,"isolated","FP004","run2","self","social"
26,1,169.486,1.338,1,0,5,"full of energy","FP004","run2","self","well-being"
27,1,174.486,0.945,1,0,3,"achieve goals","FP004","run2","self","well-being"
28,3,179.503,1.993,2,0,3,"unhappy","FP004","run2","self","ill-being"
29,2,184.487,0.881,1,0,1,"loved","FP004","run2","self","social"
30,2,189.587,1.157,1,0,5,"have support systems","FP004","run2","self","social"
31,5,204.254,2.825,1,0,6,"have warm relationships","FP004","run2","change","social"
32,5,209.255,1.497,1,0,4,"feel encouraged","FP004","run2","change","social"
33,6,214.288,1.679,1,0,1,"stressed","FP004","run2","change","ill-being"
34,5,219.274,1.742,2,0,2,"trusted","FP004","run2","change","social"
35,4,224.224,2.344,1,0,1,"proud","FP004","run2","change","well-being"
36,4,229.556,3.876,1,0,6,"live a purposeful life","FP004","run2","change","well-being"
1,3,5.059,2.293,1,0,2,"anxious","FP005","run1","self","ill-being"
2,3,10.042,1.629,2,0,5,"feel invisible","FP005","run1","self","ill-being"
3,2,14.998,1.274,1,0,5,"comfortable with friends","FP005","run1","self","social"
4,2,19.941,1.275,1,0,3,"have good friends","FP005","run1","self","social"
5,1,25.263,1.025,1,0,4,"optimistic","FP005","run1","self","well-being"
6,1,30.213,0.939,1,0,3,"achieve goals","FP005","run1","self","well-being"
7,4,44.872,1.952,1,0,5,"satisfied with life","FP005","run1","change","well-being"
8,4,49.888,1.24,1,0,2,"happy","FP005","run1","change","well-being"
9,6,54.903,2.617,1,0,4,"feel rejected","FP005","run1","change","ill-being"
10,6,59.847,1.513,1,0,5,"unable to cope","FP005","run1","change","ill-being"
11,5,64.83,1.322,1,1,5,"alienated","FP005","run1","change","social"
12,6,69.846,1.482,1,0,2,"tired","FP005","run1","change","ill-being"
13,3,84.728,1.439,2,0,5,"feel unimportant","FP005","run1","self","ill-being"
14,3,89.679,2.409,1,0,2,"lonely","FP005","run1","self","ill-being"
15,1,94.662,0.874,1,0,2,"joyful","FP005","run1","self","well-being"
16,1,99.981,0.859,1,0,1,"proud","FP005","run1","self","well-being"
17,2,104.929,0.967,1,0,4,"feel encouraged","FP005","run1","self","social"
18,3,109.945,1.087,1,0,2,"nervous","FP005","run1","self","ill-being"
19,6,124.645,1.107,1,0,3,"unhappy","FP005","run1","change","ill-being"
20,4,129.629,4.379,2,0,3,"like myself","FP005","run1","change","well-being"
21,5,134.578,1.766,1,1,4,"isolated","FP005","run1","change","social"
22,5,139.56,2.031,1,0,3,"am cared for","FP005","run1","change","social"
23,4,144.543,2.713,1,0,6,"live a meaningful life","FP005","run1","change","well-being"
24,6,149.526,1.298,1,0,3,"overwhelmed","FP005","run1","change","ill-being"
25,2,164.226,1.07,1,0,2,"trusted","FP005","run1","self","social"
26,1,169.174,1.546,1,0,6,"live a purposeful life","FP005","run1","self","well-being"
27,1,174.124,1.324,1,0,5,"full of energy","FP005","run1","self","well-being"
28,3,179.223,2.233,2,0,1,"stressed","FP005","run1","self","ill-being"
29,2,184.544,0.928,2,1,3,"neglected","FP005","run1","self","social"
30,2,189.488,0.84,1,0,1,"loved","FP005","run1","self","social"
31,5,204.162,4.59,1,0,6,"have warm relationships","FP005","run1","change","social"
32,5,209.336,1.104,1,0,5,"have support systems","FP005","run1","change","social"
33,6,214.318,1.665,1,0,2,"depressed","FP005","run1","change","ill-being"
34,5,219.335,2.16,2,0,2,"well-liked","FP005","run1","change","social"
35,4,224.277,0.882,1,0,3,"capable","FP005","run1","change","well-being"
36,4,229.377,2.023,2,0,2,"cheerful","FP005","run1","change","well-being"
1,3,5.064,2.019,2,0,4,"feel rejected","FP005","run2","self","ill-being"
2,3,10.011,1.736,2,0,5,"unable to cope","FP005","run2","self","ill-being"
3,2,15.344,1.147,2,1,5,"alienated","FP005","run2","self","social"
4,2,20.294,1.085,2,1,4,"isolated","FP005","run2","self","social"
5,1,25.615,NA,0,0,5,"satisfied with life","FP005","run2","self","well-being"
6,1,30.709,1.198,1,0,2,"happy","FP005","run2","self","well-being"
7,4,45.407,2.172,2,0,4,"optimistic","FP005","run2","change","well-being"
8,4,50.391,0.925,1,0,3,"achieve goals","FP005","run2","change","well-being"
9,6,55.331,2.6,1,0,2,"anxious","FP005","run2","change","ill-being"
10,6,60.272,1.715,1,0,5,"feel invisible","FP005","run2","change","ill-being"
11,5,65.265,3.426,2,0,5,"comfortable with friends","FP005","run2","change","social"
12,6,70.281,1.394,1,0,5,"feel unimportant","FP005","run2","change","ill-being"
13,3,85.014,1.365,1,0,2,"tired","FP005","run2","self","ill-being"
14,3,90.031,0.972,2,0,3,"unhappy","FP005","run2","self","ill-being"
15,1,95.013,1.566,1,0,3,"like myself","FP005","run2","self","well-being"
16,1,100.031,1.556,1,0,6,"live a meaningful life","FP005","run2","self","well-being"
17,2,105.201,0.907,1,0,3,"am cared for","FP005","run2","self","social"
18,3,110.297,3.818,2,0,3,"overwhelmed","FP005","run2","self","ill-being"
19,6,124.997,2.246,2,0,2,"lonely","FP005","run2","change","ill-being"
20,4,129.947,1.248,1,0,2,"joyful","FP005","run2","change","well-being"
21,5,135.114,0.897,1,0,3,"have good friends","FP005","run2","change","social"
22,5,140.064,0.948,1,0,4,"feel encouraged","FP005","run2","change","social"
23,4,145.079,0.724,1,0,1,"proud","FP005","run2","change","well-being"
24,6,150.063,2.14,1,0,2,"nervous","FP005","run2","change","ill-being"
25,2,164.811,2.12,1,0,6,"have warm relationships","FP005","run2","self","social"
26,1,169.761,0.899,1,0,3,"capable","FP005","run2","self","well-being"
27,1,174.71,0.837,1,0,2,"cheerful","FP005","run2","self","well-being"
28,3,179.809,0.891,2,0,2,"depressed","FP005","run2","self","ill-being"
29,2,184.791,0.972,1,0,5,"have support systems","FP005","run2","self","social"
30,2,189.742,1.445,1,0,2,"well-liked","FP005","run2","self","social"
31,5,204.44,0.899,1,0,2,"trusted","FP005","run2","change","social"
32,5,209.39,2.23,2,1,3,"neglected","FP005","run2","change","social"
33,6,214.372,1.071,1,0,1,"stressed","FP005","run2","change","ill-being"
34,5,219.356,4.127,2,0,1,"loved","FP005","run2","change","social"
35,4,224.338,1.018,1,0,6,"live a purposeful life","FP005","run2","change","well-being"
36,4,229.354,2.761,2,0,5,"full of energy","FP005","run2","change","well-being"
1,3,5.079,2.099,2,0,4,"feel rejected","FP006","run1","self","ill-being"
2,3,10.029,2.388,1,0,5,"feel unimportant","FP006","run1","self","ill-being"
3,2,15.047,1.467,1,0,4,"feel encouraged","FP006","run1","self","social"
4,2,20.007,1.291,1,0,5,"comfortable with friends","FP006","run1","self","social"
5,1,24.959,1.082,1,0,2,"joyful","FP006","run1","self","well-being"
6,1,30.064,1.618,1,0,1,"proud","FP006","run1","self","well-being"
7,4,44.797,1.117,1,0,2,"happy","FP006","run1","change","well-being"
8,4,49.895,2.211,1,0,6,"live a meaningful life","FP006","run1","change","well-being"
9,6,54.847,2.195,1,0,1,"sad","FP006","run1","change","ill-being"
10,6,59.946,1.88,2,0,2,"anxious","FP006","run1","change","ill-being"
11,5,64.929,2.216,1,0,6,"have warm relationships","FP006","run1","change","social"
12,6,70.259,2.503,2,0,3,"overwhelmed","FP006","run1","change","ill-being"
13,3,84.929,1.784,2,0,3,"feel worthless","FP006","run1","self","ill-being"
14,3,89.912,1.233,2,0,2,"lonely","FP006","run1","self","ill-being"
15,1,95.244,2.526,2,0,3,"positive","FP006","run1","self","well-being"
16,1,100.262,1.667,1,0,5,"interested in life","FP006","run1","self","well-being"
17,2,105.246,1.204,1,0,3,"helped by friends","FP006","run1","self","social"
18,3,110.229,2.325,1,0,2,"nervous","FP006","run1","self","ill-being"
19,6,124.896,1.458,1,0,2,"fearful","FP006","run1","change","ill-being"
20,4,129.918,2.02,2,0,2,"hopeful","FP006","run1","change","well-being"
21,5,134.861,2.54,1,0,1,"loved","FP006","run1","change","social"
22,5,139.809,2.593,1,0,2,"trusted","FP006","run1","change","social"
23,4,144.795,2.159,1,0,4,"engaged in tasks","FP006","run1","change","well-being"
24,6,149.745,2.033,2,0,1,"stressed","FP006","run1","change","ill-being"
25,2,164.561,1.361,2,1,4,"isolated","FP006","run1","self","social"
26,1,169.895,1.827,1,0,3,"achieve goals","FP006","run1","self","well-being"
27,1,174.845,1.709,1,0,5,"satisfied with life","FP006","run1","self","well-being"
28,3,179.828,2.157,2,0,5,"unable to cope","FP006","run1","self","ill-being"
29,2,184.812,1.27,1,0,3,"am cared for","FP006","run1","self","social"
30,2,189.844,1.094,1,0,3,"have good friends","FP006","run1","self","social"
31,5,204.544,2.201,1,0,6,"belong in social group","FP006","run1","change","social"
32,5,209.577,2.345,1,0,7,"have trusting relationships","FP006","run1","change","social"
33,6,214.528,1.954,1,0,3,"feel useless","FP006","run1","change","ill-being"
34,5,219.699,1.335,2,1,2,"angry","FP006","run1","change","social"
35,4,224.87,1.803,1,0,6,"live a purposeful life","FP006","run1","change","well-being"
36,4,229.857,2.104,1,0,3,"like myself","FP006","run1","change","well-being"
1,3,5.053,1.604,2,0,1,"sad","FP006","run2","self","ill-being"
2,3,10.039,1.186,1,0,2,"anxious","FP006","run2","self","ill-being"
3,2,14.993,1.192,1,0,6,"have warm relationships","FP006","run2","self","social"
4,2,20.011,0.942,1,0,1,"loved","FP006","run2","self","social"
5,1,24.993,1.608,1,0,2,"happy","FP006","run2","self","well-being"
6,1,29.988,1.949,1,0,6,"live a meaningful life","FP006","run2","self","well-being"
7,4,44.694,1.611,1,0,2,"joyful","FP006","run2","change","well-being"
8,4,49.643,1.798,2,0,1,"proud","FP006","run2","change","well-being"
9,6,54.627,2.414,1,0,4,"feel rejected","FP006","run2","change","ill-being"
10,6,59.725,2.028,1,0,5,"feel unimportant","FP006","run2","change","ill-being"
11,5,64.71,1.899,2,0,4,"feel encouraged","FP006","run2","change","social"
12,6,69.66,2.005,1,0,3,"feel worthless","FP006","run2","change","ill-being"
13,3,84.476,2.045,1,0,3,"overwhelmed","FP006","run2","self","ill-being"
14,3,89.427,1.806,2,0,2,"fearful","FP006","run2","self","ill-being"
15,1,94.41,2.152,1,0,2,"hopeful","FP006","run2","self","well-being"
16,1,99.36,2.281,1,0,4,"engaged in tasks","FP006","run2","self","well-being"
17,2,104.457,1.104,1,0,2,"trusted","FP006","run2","self","social"
18,3,109.411,1.103,1,0,1,"stressed","FP006","run2","self","ill-being"
19,6,124.455,1.738,1,0,2,"lonely","FP006","run2","change","ill-being"
20,4,129.408,2.146,2,0,3,"positive","FP006","run2","change","well-being"
21,5,134.428,1.605,1,0,5,"comfortable with friends","FP006","run2","change","social"
22,5,139.76,1.994,1,0,3,"helped by friends","FP006","run2","change","social"
23,4,144.859,2.023,2,0,5,"interested in life","FP006","run2","change","well-being"
24,6,150.19,1.843,2,0,2,"nervous","FP006","run2","change","ill-being"
25,2,164.926,2.259,2,0,6,"belong in social group","FP006","run2","self","social"
26,1,169.87,1.251,1,0,6,"live a purposeful life","FP006","run2","self","well-being"
27,1,174.857,1.848,2,0,3,"like myself","FP006","run2","self","well-being"
28,3,179.809,1.736,2,0,3,"feel useless","FP006","run2","self","ill-being"
29,2,184.759,1.338,1,0,7,"have trusting relationships","FP006","run2","self","social"
30,2,189.702,1.348,2,1,2,"angry","FP006","run2","self","social"
31,5,204.592,1.826,1,1,4,"isolated","FP006","run2","change","social"
32,5,209.766,2.34,2,0,3,"am cared for","FP006","run2","change","social"
33,6,214.709,1.901,1,0,5,"unable to cope","FP006","run2","change","ill-being"
34,5,219.69,1.656,2,0,3,"have good friends","FP006","run2","change","social"
35,4,224.674,1.919,2,0,3,"achieve goals","FP006","run2","change","well-being"
36,4,229.658,2.384,1,0,5,"satisfied with life","FP006","run2","change","well-being"
1,3,5.061,2.037,2,0,2,"lonely","FP007","run1","self","ill-being"
2,3,10.231,1.731,2,0,3,"feel worthless","FP007","run1","self","ill-being"
3,2,15.174,2.403,1,0,2,"trusted","FP007","run1","self","social"
4,2,20.124,2.502,1,0,7,"have trusting relationships","FP007","run1","self","social"
5,1,25.108,1.766,2,0,2,"joyful","FP007","run1","self","well-being"
6,1,30.441,1.416,1,0,5,"interested in life","FP007","run1","self","well-being"
7,4,45.257,2.088,1,0,5,"satisfied with life","FP007","run1","change","well-being"
8,4,50.358,1.668,1,0,3,"like myself","FP007","run1","change","well-being"
9,6,55.297,2.24,1,0,2,"fearful","FP007","run1","change","ill-being"
10,6,60.241,2.144,1,0,3,"overwhelmed","FP007","run1","change","ill-being"
11,5,65.188,3.126,1,0,6,"have warm relationships","FP007","run1","change","social"
12,6,70.14,2.077,1,0,5,"feel unimportant","FP007","run1","change","ill-being"
13,3,84.79,1.54,1,0,2,"anxious","FP007","run1","self","ill-being"
14,3,89.738,1.255,2,0,3,"feel useless","FP007","run1","self","ill-being"
15,1,94.756,3.357,2,0,1,"proud","FP007","run1","self","well-being"
16,1,99.845,1.629,1,0,2,"happy","FP007","run1","self","well-being"
17,2,104.79,1.628,1,0,3,"am cared for","FP007","run1","self","social"
18,3,109.77,3.431,1,0,2,"nervous","FP007","run1","self","ill-being"
19,6,124.506,2.415,1,0,1,"stressed","FP007","run1","change","ill-being"
20,4,129.523,1.503,1,0,2,"hopeful","FP007","run1","change","well-being"
21,5,134.504,1.97,1,1,2,"angry","FP007","run1","change","social"
22,5,139.823,2.482,1,0,1,"loved","FP007","run1","change","social"
23,4,144.806,3.116,1,0,4,"engaged in tasks","FP007","run1","change","well-being"
24,6,150.131,2.534,2,0,4,"feel rejected","FP007","run1","change","ill-being"
25,2,165.022,1.844,1,0,5,"comfortable with friends","FP007","run1","self","social"
26,1,170.122,1.463,1,0,3,"positive","FP007","run1","self","well-being"
27,1,175.099,2.118,1,0,6,"live a meaningful life","FP007","run1","self","well-being"
28,3,180.086,1.739,2,0,5,"unable to cope","FP007","run1","self","ill-being"
29,2,185.072,2.218,2,0,6,"belong in social group","FP007","run1","self","social"
30,2,190.057,1.113,1,0,3,"have good friends","FP007","run1","self","social"
31,5,204.721,1.553,1,1,4,"isolated","FP007","run1","change","social"
32,5,209.738,2.183,1,0,4,"feel encouraged","FP007","run1","change","social"
33,6,214.756,1.878,1,0,1,"sad","FP007","run1","change","ill-being"
34,5,219.731,2.286,2,0,3,"helped by friends","FP007","run1","change","social"
35,4,224.671,2.074,1,0,3,"achieve goals","FP007","run1","change","well-being"
36,4,229.689,1.257,1,0,6,"live a purposeful life","FP007","run1","change","well-being"
1,3,5.047,1.669,2,0,2,"fearful","FP007","run2","self","ill-being"
2,3,9.994,1.362,2,0,3,"overwhelmed","FP007","run2","self","ill-being"
3,2,15.17,1.33,1,0,6,"have warm relationships","FP007","run2","self","social"
4,2,20.191,1.237,2,1,2,"angry","FP007","run2","self","social"
5,1,25.145,2.276,2,0,5,"satisfied with life","FP007","run2","self","well-being"
6,1,30.127,1.022,1,0,3,"like myself","FP007","run2","self","well-being"
7,4,44.793,1.547,1,0,2,"joyful","FP007","run2","change","well-being"
8,4,49.744,1.292,1,0,5,"interested in life","FP007","run2","change","well-being"
9,6,54.682,1.77,1,0,2,"lonely","FP007","run2","change","ill-being"
10,6,59.626,2.738,1,0,3,"feel worthless","FP007","run2","change","ill-being"
11,5,64.573,3.215,1,0,2,"trusted","FP007","run2","change","social"
12,6,69.526,1.358,1,0,2,"anxious","FP007","run2","change","ill-being"
13,3,84.176,1.348,2,0,5,"feel unimportant","FP007","run2","self","ill-being"
14,3,89.157,2.015,2,0,1,"stressed","FP007","run2","self","ill-being"
15,1,94.176,1.308,1,0,2,"hopeful","FP007","run2","self","well-being"
16,1,99.16,2.309,1,0,4,"engaged in tasks","FP007","run2","self","well-being"
17,2,104.176,0.948,1,0,1,"loved","FP007","run2","self","social"
18,3,109.121,2.067,2,0,4,"feel rejected","FP007","run2","self","ill-being"
19,6,124.159,2.613,1,0,3,"feel useless","FP007","run2","change","ill-being"
20,4,129.253,2.783,1,0,1,"proud","FP007","run2","change","well-being"
21,5,134.576,1.764,1,0,7,"have trusting relationships","FP007","run2","change","social"
22,5,139.525,1.759,2,0,3,"am cared for","FP007","run2","change","social"
23,4,144.693,1.352,1,0,2,"happy","FP007","run2","change","well-being"
24,6,149.783,1.325,1,0,2,"nervous","FP007","run2","change","ill-being"
25,2,164.476,2.92,1,1,4,"isolated","FP007","run2","self","social"
26,1,169.458,1.162,1,0,3,"achieve goals","FP007","run2","self","well-being"
27,1,174.551,2.077,1,0,6,"live a purposeful life","FP007","run2","self","well-being"
28,3,179.539,0.977,2,0,1,"sad","FP007","run2","self","ill-being"
29,2,184.525,2.095,1,0,4,"feel encouraged","FP007","run2","self","social"
30,2,189.475,1.241,1,0,3,"helped by friends","FP007","run2","self","social"
31,5,204.207,3.709,1,0,5,"comfortable with friends","FP007","run2","change","social"
32,5,209.192,2.332,1,0,6,"belong in social group","FP007","run2","change","social"
33,6,214.142,2.55,1,0,5,"unable to cope","FP007","run2","change","ill-being"
34,5,219.467,1.497,1,0,3,"have good friends","FP007","run2","change","social"
35,4,224.488,1.941,2,0,3,"positive","FP007","run2","change","well-being"
36,4,229.508,1.256,1,0,6,"live a meaningful life","FP007","run2","change","well-being"
1,3,5.064,1.881,1,0,3,"overwhelmed","FP008","run1","self","ill-being"
2,3,10.383,1.642,2,0,3,"feel useless","FP008","run1","self","ill-being"
3,2,15.37,1.887,1,0,3,"helped by friends","FP008","run1","self","social"
4,2,20.388,1.261,1,0,1,"loved","FP008","run1","self","social"
5,1,25.371,1.062,1,0,3,"positive","FP008","run1","self","well-being"
6,1,30.547,1.726,1,0,4,"engaged in tasks","FP008","run1","self","well-being"
7,4,45.288,1.625,1,0,1,"proud","FP008","run1","change","well-being"
8,4,50.228,0.845,1,0,2,"hopeful","FP008","run1","change","well-being"
9,6,55.248,2.817,1,0,4,"feel rejected","FP008","run1","change","ill-being"
10,6,60.236,2.173,1,0,1,"sad","FP008","run1","change","ill-being"
11,5,65.188,2.829,2,0,6,"have warm relationships","FP008","run1","change","social"
12,6,70.17,2.463,1,0,2,"nervous","FP008","run1","change","ill-being"
13,3,84.837,1.412,2,0,3,"feel worthless","FP008","run1","self","ill-being"
14,3,89.856,1.401,2,0,5,"unable to cope","FP008","run1","self","ill-being"
15,1,94.836,1.061,1,0,2,"joyful","FP008","run1","self","well-being"
16,1,99.78,1.357,1,0,6,"live a meaningful life","FP008","run1","self","well-being"
17,2,104.801,1.616,1,1,4,"isolated","FP008","run1","self","social"
18,3,109.819,1.078,1,0,1,"stressed","FP008","run1","self","ill-being"
19,6,124.469,1.316,1,0,2,"anxious","FP008","run1","change","ill-being"
20,4,129.418,2.951,1,0,3,"achieve goals","FP008","run1","change","well-being"
21,5,134.369,2.504,1,0,6,"belong in social group","FP008","run1","change","social"
22,5,139.309,2.348,1,0,4,"feel encouraged","FP008","run1","change","social"
23,4,144.253,1.852,2,0,5,"interested in life","FP008","run1","change","well-being"
24,6,149.199,1.866,1,0,2,"fearful","FP008","run1","change","ill-being"
25,2,163.902,1.795,1,0,5,"comfortable with friends","FP008","run1","self","social"
26,1,168.846,1.291,1,0,6,"live a purposeful life","FP008","run1","self","well-being"
27,1,173.935,0.97,1,0,2,"happy","FP008","run1","self","well-being"
28,3,179.036,2.829,2,0,2,"lonely","FP008","run1","self","ill-being"
29,2,184.018,2.719,1,0,3,"have good friends","FP008","run1","self","social"
30,2,189.035,1.15,1,0,2,"trusted","FP008","run1","self","social"
31,5,203.735,1.842,2,0,3,"am cared for","FP008","run1","change","social"
32,5,208.825,1.456,1,1,2,"angry","FP008","run1","change","social"
33,6,213.769,2.504,1,0,5,"feel unimportant","FP008","run1","change","ill-being"
34,5,218.95,2.995,1,0,7,"have trusting relationships","FP008","run1","change","social"
35,4,224.268,1.805,1,0,3,"like myself","FP008","run1","change","well-being"
36,4,229.251,1.582,1,0,5,"satisfied with life","FP008","run1","change","well-being"
1,3,5.06,2.241,1,0,4,"feel rejected","FP008","run2","self","ill-being"
2,3,10.009,2.203,2,0,1,"sad","FP008","run2","self","ill-being"
3,2,15.042,2.386,1,0,6,"have warm relationships","FP008","run2","self","social"
4,2,20.366,1.847,2,0,6,"belong in social group","FP008","run2","self","social"
5,1,25.341,0.983,1,0,1,"proud","FP008","run2","self","well-being"
6,1,30.29,1.882,1,0,2,"hopeful","FP008","run2","self","well-being"
7,4,45.167,2.622,2,0,3,"positive","FP008","run2","change","well-being"
8,4,50.108,2.92,1,0,4,"engaged in tasks","FP008","run2","change","well-being"
9,6,55.442,1.65,1,0,3,"overwhelmed","FP008","run2","change","ill-being"
10,6,60.425,2.355,1,0,3,"feel useless","FP008","run2","change","ill-being"
11,5,65.515,2.562,2,0,3,"helped by friends","FP008","run2","change","social"
12,6,70.458,4.218,1,0,3,"feel worthless","FP008","run2","change","ill-being"
13,3,85.125,1.432,1,0,2,"nervous","FP008","run2","self","ill-being"
14,3,90.141,0.655,1,0,2,"anxious","FP008","run2","self","ill-being"
15,1,95.47,2.134,1,0,3,"achieve goals","FP008","run2","self","well-being"
16,1,100.424,0.948,1,0,5,"interested in life","FP008","run2","self","well-being"
17,2,105.525,4.64,1,0,4,"feel encouraged","FP008","run2","self","social"
18,3,110.608,1.989,2,0,2,"fearful","FP008","run2","self","ill-being"
19,6,125.308,3.369,1,0,5,"unable to cope","FP008","run2","change","ill-being"
20,4,130.324,2.224,2,0,2,"joyful","FP008","run2","change","well-being"
21,5,135.307,1.809,2,0,1,"loved","FP008","run2","change","social"
22,5,140.286,1.935,1,1,4,"isolated","FP008","run2","change","social"
23,4,145.306,2.258,1,0,6,"live a meaningful life","FP008","run2","change","well-being"
24,6,150.258,0.811,1,0,1,"stressed","FP008","run2","change","ill-being"
25,2,164.921,2.723,1,0,3,"am cared for","FP008","run2","self","social"
26,1,169.874,2.923,2,0,3,"like myself","FP008","run2","self","well-being"
27,1,174.856,1.172,1,0,5,"satisfied with life","FP008","run2","self","well-being"
28,3,179.873,1.972,1,0,5,"feel unimportant","FP008","run2","self","ill-being"
29,2,184.852,1.145,1,1,2,"angry","FP008","run2","self","social"
30,2,189.838,2.175,1,0,7,"have trusting relationships","FP008","run2","self","social"
31,5,204.573,2.367,1,0,5,"comfortable with friends","FP008","run2","change","social"
32,5,209.552,1.172,1,0,3,"have good friends","FP008","run2","change","social"
33,6,214.506,1.554,1,0,2,"lonely","FP008","run2","change","ill-being"
34,5,219.676,0.84,1,0,2,"trusted","FP008","run2","change","social"
35,4,224.623,3.437,1,0,6,"live a purposeful life","FP008","run2","change","well-being"
36,4,229.599,0.845,1,0,2,"happy","FP008","run2","change","well-being"
1,3,5.043,2.546,2,0,3,"feel useless","FP009","run1","self","ill-being"
2,3,9.984,2.429,1,0,5,"unable to cope","FP009","run1","self","ill-being"
3,2,15.001,1.468,1,0,3,"have good friends","FP009","run1","self","social"
4,2,20.321,2.236,2,1,4,"isolated","FP009","run1","self","social"
5,1,25.268,1.801,1,0,2,"joyful","FP009","run1","self","well-being"
6,1,30.362,1.203,2,0,3,"positive","FP009","run1","self","well-being"
7,4,45.018,2.06,1,0,5,"satisfied with life","FP009","run1","change","well-being"
8,4,50,1.349,1,0,3,"achieve goals","FP009","run1","change","well-being"
9,6,55.017,1.948,1,0,3,"feel worthless","FP009","run1","change","ill-being"
10,6,59.966,2.055,2,0,2,"anxious","FP009","run1","change","ill-being"
11,5,64.918,1.447,1,0,6,"belong in social group","FP009","run1","change","social"
12,6,69.934,1.663,1,0,3,"overwhelmed","FP009","run1","change","ill-being"
13,3,84.634,1.363,1,0,2,"lonely","FP009","run1","self","ill-being"
14,3,89.617,1.668,2,0,5,"feel unimportant","FP009","run1","self","ill-being"
15,1,94.558,1.792,2,0,3,"like myself","FP009","run1","self","well-being"
16,1,99.729,1.324,1,0,6,"live a meaningful life","FP009","run1","self","well-being"
17,2,104.748,1.425,1,0,2,"trusted","FP009","run1","self","social"
18,3,110.067,2.139,2,0,2,"fearful","FP009","run1","self","ill-being"
19,6,124.764,2.161,1,0,4,"feel rejected","FP009","run1","change","ill-being"
20,4,129.783,1.454,1,0,4,"engaged in tasks","FP009","run1","change","well-being"
21,5,134.766,1.279,1,1,2,"angry","FP009","run1","change","social"
22,5,140.091,1.738,1,0,4,"feel encouraged","FP009","run1","change","social"
23,4,145.032,1.397,1,0,2,"happy","FP009","run1","change","well-being"
24,6,150.131,1.546,1,0,2,"nervous","FP009","run1","change","ill-being"
25,2,165.025,2.156,1,0,6,"have warm relationships","FP009","run1","self","social"
26,1,170.012,1.513,1,0,6,"live a purposeful life","FP009","run1","self","well-being"
27,1,175.032,1.317,1,0,2,"hopeful","FP009","run1","self","well-being"
28,3,180.016,1.189,1,0,1,"stressed","FP009","run1","self","ill-being"
29,2,184.998,1.551,1,0,7,"have trusting relationships","FP009","run1","self","social"
30,2,189.943,0.99,1,0,1,"loved","FP009","run1","self","social"
31,5,204.649,2.132,1,0,3,"helped by friends","FP009","run1","change","social"
32,5,209.674,3.051,1,0,5,"comfortable with friends","FP009","run1","change","social"
33,6,214.765,1.536,1,0,1,"sad","FP009","run1","change","ill-being"
34,5,219.748,2.025,2,0,3,"am cared for","FP009","run1","change","social"
35,4,224.698,2.251,1,0,1,"proud","FP009","run1","change","well-being"
36,4,229.639,2.31,2,0,5,"interested in life","FP009","run1","change","well-being"
1,3,5.054,1.904,2,0,3,"feel worthless","FP009","run2","self","ill-being"
2,3,10.007,0.895,1,0,2,"anxious","FP009","run2","self","ill-being"
3,2,14.994,1.7,2,0,6,"belong in social group","FP009","run2","self","social"
4,2,19.945,1.061,2,1,2,"angry","FP009","run2","self","social"
5,1,24.883,1.611,1,0,5,"satisfied with life","FP009","run2","self","well-being"
6,1,29.86,0.938,1,0,3,"achieve goals","FP009","run2","self","well-being"
7,4,44.678,1.96,1,0,2,"joyful","FP009","run2","change","well-being"
8,4,49.694,1.16,1,0,3,"positive","FP009","run2","change","well-being"
9,6,54.789,1.705,1,0,3,"feel useless","FP009","run2","change","ill-being"
10,6,59.776,2.149,1,0,5,"unable to cope","FP009","run2","change","ill-being"
11,5,64.793,1.213,1,0,3,"have good friends","FP009","run2","change","social"
12,6,69.883,1.883,1,0,2,"lonely","FP009","run2","change","ill-being"
13,3,84.544,1.686,1,0,3,"overwhelmed","FP009","run2","self","ill-being"
14,3,89.527,1.607,2,0,4,"feel rejected","FP009","run2","self","ill-being"
15,1,94.468,1.426,1,0,4,"engaged in tasks","FP009","run2","self","well-being"
16,1,99.638,1.736,1,0,2,"happy","FP009","run2","self","well-being"
17,2,104.624,2.182,1,0,4,"feel encouraged","FP009","run2","self","social"
18,3,109.61,0.924,1,0,2,"nervous","FP009","run2","self","ill-being"
19,6,124.272,1.614,1,0,5,"feel unimportant","FP009","run2","change","ill-being"
20,4,129.292,2.562,1,0,3,"like myself","FP009","run2","change","well-being"
21,5,134.243,1.939,1,1,4,"isolated","FP009","run2","change","social"
22,5,139.226,3.108,2,0,2,"trusted","FP009","run2","change","social"
23,4,144.17,2.244,1,0,6,"live a meaningful life","FP009","run2","change","well-being"
24,6,149.156,1.378,1,0,2,"fearful","FP009","run2","change","ill-being"
25,2,163.809,1.181,1,0,3,"helped by friends","FP009","run2","self","social"
26,1,169.138,1.46,1,0,1,"proud","FP009","run2","self","well-being"
27,1,174.125,1.353,1,0,5,"interested in life","FP009","run2","self","well-being"
28,3,179.076,2.666,2,0,1,"sad","FP009","run2","self","ill-being"
29,2,184.064,2.566,1,0,5,"comfortable with friends","FP009","run2","self","social"
30,2,189.085,1.105,1,0,3,"am cared for","FP009","run2","self","social"
31,5,203.892,1.466,1,0,6,"have warm relationships","FP009","run2","change","social"
32,5,209.216,0.87,1,0,7,"have trusting relationships","FP009","run2","change","social"
33,6,214.237,2.265,1,0,1,"stressed","FP009","run2","change","ill-being"
34,5,219.191,2.095,2,0,1,"loved","FP009","run2","change","social"
35,4,224.358,0.944,1,0,6,"live a purposeful life","FP009","run2","change","well-being"
36,4,229.342,1.48,1,0,2,"hopeful","FP009","run2","change","well-being"
1,3,5.067,3.193,2,0,2,"lonely","FP010","run1","self","ill-being"
2,3,10.02,3.36,2,0,3,"feel worthless","FP010","run1","self","ill-being"
3,2,15.037,2.183,1,1,2,"angry","FP010","run1","self","social"
4,2,20.359,1.58,1,0,3,"helped by friends","FP010","run1","self","social"
5,1,25.336,1.724,1,0,2,"happy","FP010","run1","self","well-being"
6,1,30.368,1.868,1,0,6,"live a purposeful life","FP010","run1","self","well-being"
7,4,45.403,1.864,1,0,3,"achieve goals","FP010","run1","change","well-being"
8,4,50.498,2.186,1,0,2,"hopeful","FP010","run1","change","well-being"
9,6,55.485,1.895,1,0,2,"anxious","FP010","run1","change","ill-being"
10,6,60.82,1.568,1,0,3,"overwhelmed","FP010","run1","change","ill-being"
11,5,65.803,1.497,1,0,2,"trusted","FP010","run1","change","social"
12,6,70.969,2.011,2,0,5,"unable to cope","FP010","run1","change","ill-being"
13,3,85.636,1.359,1,0,2,"nervous","FP010","run1","self","ill-being"
14,3,90.619,1.625,2,0,3,"feel useless","FP010","run1","self","ill-being"
15,1,95.635,2.113,1,0,5,"satisfied with life","FP010","run1","self","well-being"
16,1,100.65,2.658,1,0,3,"like myself","FP010","run1","self","well-being"
17,2,105.602,2.993,2,0,6,"belong in social group","FP010","run1","self","social"
18,3,110.619,2.465,1,0,5,"feel unimportant","FP010","run1","self","ill-being"
19,6,125.318,1.766,1,0,1,"sad","FP010","run1","change","ill-being"
20,4,130.335,3.604,1,0,5,"interested in life","FP010","run1","change","well-being"
21,5,135.352,1.595,1,0,3,"have good friends","FP010","run1","change","social"
22,5,140.295,2.589,1,0,1,"loved","FP010","run1","change","social"
23,4,145.284,1.416,1,0,3,"positive","FP010","run1","change","well-being"
24,6,150.236,2.304,1,0,4,"feel rejected","FP010","run1","change","ill-being"
25,2,165.047,2.94,1,1,4,"isolated","FP010","run1","self","social"
26,1,170.034,2.01,1,0,6,"live a meaningful life","FP010","run1","self","well-being"
27,1,174.985,1.515,1,0,2,"joyful","FP010","run1","self","well-being"
28,3,179.923,1.48,2,0,2,"fearful","FP010","run1","self","ill-being"
29,2,184.911,1.405,1,0,5,"comfortable with friends","FP010","run1","self","social"
30,2,189.852,1.376,1,0,3,"am cared for","FP010","run1","self","social"
31,5,204.551,1.621,1,0,6,"have warm relationships","FP010","run1","change","social"
32,5,209.645,1.551,1,0,7,"have trusting relationships","FP010","run1","change","social"
33,6,214.6,1.012,1,0,1,"stressed","FP010","run1","change","ill-being"
34,5,219.552,2.332,1,0,4,"feel encouraged","FP010","run1","change","social"
35,4,224.501,2.479,1,0,1,"proud","FP010","run1","change","well-being"
36,4,229.484,1.624,1,0,4,"engaged in tasks","FP010","run1","change","well-being"
1,3,5.056,1.3,1,0,2,"anxious","FP010","run2","self","ill-being"
2,3,10.039,2.085,2,0,3,"overwhelmed","FP010","run2","self","ill-being"
3,2,15.205,1.151,1,0,2,"trusted","FP010","run2","self","social"
4,2,20.221,1.647,1,0,3,"have good friends","FP010","run2","self","social"
5,1,25.171,1.161,1,0,3,"achieve goals","FP010","run2","self","well-being"
6,1,30.269,1.35,1,0,2,"hopeful","FP010","run2","self","well-being"
7,4,44.922,1.586,1,0,2,"happy","FP010","run2","change","well-being"
8,4,49.939,1.833,1,0,6,"live a purposeful life","FP010","run2","change","well-being"
9,6,54.92,1.556,1,0,2,"lonely","FP010","run2","change","ill-being"
10,6,59.905,1.483,1,0,3,"feel worthless","FP010","run2","change","ill-being"
11,5,64.844,0.848,1,1,2,"angry","FP010","run2","change","social"
12,6,69.865,1.019,1,0,2,"nervous","FP010","run2","change","ill-being"
13,3,84.521,4.555,2,0,5,"unable to cope","FP010","run2","self","ill-being"
14,3,89.488,2.244,1,0,1,"sad","FP010","run2","self","ill-being"
15,1,94.654,1.533,1,0,5,"interested in life","FP010","run2","self","well-being"
16,1,99.753,0.802,1,0,3,"positive","FP010","run2","self","well-being"
17,2,104.704,0.756,1,0,1,"loved","FP010","run2","self","social"
18,3,110.027,3.017,1,0,4,"feel rejected","FP010","run2","self","ill-being"
19,6,124.687,1.693,1,0,3,"feel useless","FP010","run2","change","ill-being"
20,4,129.637,1.119,1,0,5,"satisfied with life","FP010","run2","change","well-being"
21,5,134.621,1.679,1,0,3,"helped by friends","FP010","run2","change","social"
22,5,139.598,3.958,1,0,6,"belong in social group","FP010","run2","change","social"
23,4,144.585,3.619,1,0,3,"like myself","FP010","run2","change","well-being"
24,6,149.537,1.275,1,0,5,"feel unimportant","FP010","run2","change","ill-being"
25,2,164.236,1.904,1,0,6,"have warm relationships","FP010","run2","self","social"
26,1,169.187,0.985,1,0,1,"proud","FP010","run2","self","well-being"
27,1,174.203,1.009,1,0,4,"engaged in tasks","FP010","run2","self","well-being"
28,3,179.143,1.221,1,0,1,"stressed","FP010","run2","self","ill-being"
29,2,184.164,1.688,1,0,7,"have trusting relationships","FP010","run2","self","social"
30,2,189.15,2.19,1,0,4,"feel encouraged","FP010","run2","self","social"
31,5,203.852,1.831,1,1,4,"isolated","FP010","run2","change","social"
32,5,208.797,1.495,1,0,5,"comfortable with friends","FP010","run2","change","social"
33,6,214.119,1.205,1,0,2,"fearful","FP010","run2","change","ill-being"
34,5,219.219,2.265,2,0,3,"am cared for","FP010","run2","change","social"
35,4,224.203,2.225,1,0,6,"live a meaningful life","FP010","run2","change","well-being"
36,4,229.179,1.928,1,0,2,"joyful","FP010","run2","change","well-being"
1,3,5.063,1.817,2,0,1,"sad","FP011","run1","self","ill-being"
2,3,10.046,1.45,2,0,3,"feel worthless","FP011","run1","self","ill-being"
3,2,14.996,3.453,2,0,7,"have trusting relationships","FP011","run1","self","social"
4,2,19.977,0.52,1,0,3,"have good friends","FP011","run1","self","social"
5,1,25.312,1.144,1,0,5,"interested in life","FP011","run1","self","well-being"
6,1,30.263,0.825,1,0,2,"happy","FP011","run1","self","well-being"
7,4,45.311,3.202,1,0,4,"engaged in tasks","FP011","run1","change","well-being"
8,4,50.296,1.553,1,0,3,"positive","FP011","run1","change","well-being"
9,6,55.312,2.009,1,0,3,"feel useless","FP011","run1","change","ill-being"
10,6,60.287,1.329,1,0,3,"overwhelmed","FP011","run1","change","ill-being"
11,5,65.228,1.452,1,1,4,"isolated","FP011","run1","change","social"
12,6,70.328,1.184,1,0,1,"stressed","FP011","run1","change","ill-being"
13,3,85.129,1.632,2,0,5,"feel unimportant","FP011","run1","self","ill-being"
14,3,90.076,1.245,2,0,2,"lonely","FP011","run1","self","ill-being"
15,1,95.029,1.091,1,0,2,"joyful","FP011","run1","self","well-being"
16,1,100.045,1.771,1,0,6,"live a purposeful life","FP011","run1","self","well-being"
17,2,104.986,1.391,1,0,4,"feel encouraged","FP011","run1","self","social"
18,3,109.928,1.568,2,0,2,"fearful","FP011","run1","self","ill-being"
19,6,124.662,2.427,1,0,5,"unable to cope","FP011","run1","change","ill-being"
20,4,129.605,1.884,1,0,2,"hopeful","FP011","run1","change","well-being"
21,5,134.625,1.488,1,1,2,"angry","FP011","run1","change","social"
22,5,139.645,2.811,1,0,3,"helped by friends","FP011","run1","change","social"
23,4,144.745,1.543,1,0,1,"proud","FP011","run1","change","well-being"
24,6,149.728,2.209,1,0,4,"feel rejected","FP011","run1","change","ill-being"
25,2,164.428,1.829,1,0,3,"am cared for","FP011","run1","self","social"
26,1,169.411,1.446,1,0,5,"satisfied with life","FP011","run1","self","well-being"
27,1,174.352,1.296,1,0,3,"achieve goals","FP011","run1","self","well-being"
28,3,179.289,1.479,2,0,2,"anxious","FP011","run1","self","ill-being"
29,2,184.244,1.908,1,0,6,"have warm relationships","FP011","run1","self","social"
30,2,189.261,2.059,1,0,6,"belong in social group","FP011","run1","self","social"
31,5,204.142,2.203,1,0,2,"trusted","FP011","run1","change","social"
32,5,209.127,1.41,1,0,1,"loved","FP011","run1","change","social"
33,6,214.065,1.256,1,0,2,"nervous","FP011","run1","change","ill-being"
34,5,219.052,1.804,1,0,5,"comfortable with friends","FP011","run1","change","social"
35,4,224.073,3.568,1,0,6,"live a meaningful life","FP011","run1","change","well-being"
36,4,229.026,4.255,1,0,3,"like myself","FP011","run1","change","well-being"
1,3,5.049,2.486,2,0,3,"feel useless","FP011","run2","self","ill-being"
2,3,10.002,1.221,2,0,3,"overwhelmed","FP011","run2","self","ill-being"
3,2,14.984,1.199,2,1,4,"isolated","FP011","run2","self","social"
4,2,20,0.831,2,1,2,"angry","FP011","run2","self","social"
5,1,25.017,2.406,1,0,4,"engaged in tasks","FP011","run2","self","well-being"
6,1,30.116,0.819,1,0,3,"positive","FP011","run2","self","well-being"
7,4,44.81,2.469,1,0,5,"interested in life","FP011","run2","change","well-being"
8,4,49.75,1.105,1,0,2,"happy","FP011","run2","change","well-being"
9,6,54.766,2.097,1,0,1,"sad","FP011","run2","change","ill-being"
10,6,59.75,1.393,1,0,3,"feel worthless","FP011","run2","change","ill-being"
11,5,64.85,2.645,1,0,7,"have trusting relationships","FP011","run2","change","social"
12,6,69.794,1.677,1,0,5,"feel unimportant","FP011","run2","change","ill-being"
13,3,84.684,2.836,2,0,1,"stressed","FP011","run2","self","ill-being"
14,3,89.666,1.989,2,0,5,"unable to cope","FP011","run2","self","ill-being"
15,1,94.612,1.043,1,0,2,"hopeful","FP011","run2","self","well-being"
16,1,99.599,0.928,1,0,1,"proud","FP011","run2","self","well-being"
17,2,104.921,2.007,1,0,3,"helped by friends","FP011","run2","self","social"
18,3,109.899,1.901,2,0,4,"feel rejected","FP011","run2","self","ill-being"
19,6,124.566,1.377,2,0,2,"lonely","FP011","run2","change","ill-being"
20,4,129.549,1.394,1,0,2,"joyful","FP011","run2","change","well-being"
21,5,134.491,1.821,1,0,3,"have good friends","FP011","run2","change","social"
22,5,139.432,1.863,1,0,4,"feel encouraged","FP011","run2","change","social"
23,4,144.415,2.744,1,0,6,"live a purposeful life","FP011","run2","change","well-being"
24,6,149.516,1.859,1,0,2,"fearful","FP011","run2","change","ill-being"
25,2,164.213,2.811,1,0,2,"trusted","FP011","run2","self","social"
26,1,169.232,1.183,1,0,6,"live a meaningful life","FP011","run2","self","well-being"
27,1,174.215,1.064,1,0,3,"like myself","FP011","run2","self","well-being"
28,3,179.231,1.576,2,0,2,"nervous","FP011","run2","self","ill-being"
29,2,184.177,1.07,1,0,1,"loved","FP011","run2","self","social"
30,2,189.197,1.442,1,0,5,"comfortable with friends","FP011","run2","self","social"
31,5,203.932,3.236,2,0,3,"am cared for","FP011","run2","change","social"
32,5,208.877,1.834,1,0,6,"have warm relationships","FP011","run2","change","social"
33,6,213.831,2.4,1,0,2,"anxious","FP011","run2","change","ill-being"
34,5,218.782,3.041,2,0,6,"belong in social group","FP011","run2","change","social"
35,4,224.105,2.35,1,0,5,"satisfied with life","FP011","run2","change","well-being"
36,4,229.047,3.872,2,0,3,"achieve goals","FP011","run2","change","well-being"
1,3,5.066,3.248,2,0,5,"unable to cope","FP012","run1","self","ill-being"
2,3,10.272,1.866,1,0,1,"stressed","FP012","run1","self","ill-being"
3,2,15.228,2.503,1,0,2,"trusted","FP012","run1","self","social"
4,2,20.567,1.875,2,1,2,"angry","FP012","run1","self","social"
5,1,25.623,2.052,1,0,3,"achieve goals","FP012","run1","self","well-being"
6,1,30.628,1.806,2,0,2,"hopeful","FP012","run1","self","well-being"
7,4,45.312,2.667,1,0,5,"interested in life","FP012","run1","change","well-being"
8,4,50.351,2.827,1,0,4,"engaged in tasks","FP012","run1","change","well-being"
9,6,55.39,2.604,2,0,2,"lonely","FP012","run1","change","ill-being"
10,6,60.346,2.393,1,0,2,"nervous","FP012","run1","change","ill-being"
11,5,65.685,3.229,2,1,4,"isolated","FP012","run1","change","social"
12,6,70.691,2.088,1,0,2,"anxious","FP012","run1","change","ill-being"
13,3,85.407,1.659,1,0,1,"sad","FP012","run1","self","ill-being"
14,3,90.396,1.958,2,0,4,"feel rejected","FP012","run1","self","ill-being"
15,1,95.352,3.194,1,0,3,"like myself","FP012","run1","self","well-being"
16,1,100.358,1.805,2,0,2,"happy","FP012","run1","self","well-being"
17,2,105.33,3.12,1,0,7,"have trusting relationships","FP012","run1","self","social"
18,3,110.436,1.735,2,0,5,"feel unimportant","FP012","run1","self","ill-being"
19,6,125.169,2.825,2,0,3,"feel useless","FP012","run1","change","ill-being"
20,4,130.208,2.082,1,0,2,"joyful","FP012","run1","change","well-being"
21,5,135.181,1.198,1,0,3,"have good friends","FP012","run1","change","social"
22,5,140.22,2.935,1,0,3,"am cared for","FP012","run1","change","social"
23,4,145.559,2.667,1,0,6,"live a meaningful life","FP012","run1","change","well-being"
24,6,150.531,3.863,2,0,2,"fearful","FP012","run1","change","ill-being"
25,2,165.265,1.986,2,0,3,"helped by friends","FP012","run1","self","social"
26,1,170.254,1.613,1,0,6,"live a purposeful life","FP012","run1","self","well-being"
27,1,175.209,3.089,2,0,1,"proud","FP012","run1","self","well-being"
28,3,180.182,1.125,2,0,3,"feel worthless","FP012","run1","self","ill-being"
29,2,185.137,2.185,2,0,6,"belong in social group","FP012","run1","self","social"
30,2,190.11,2.013,1,0,5,"comfortable with friends","FP012","run1","self","social"
31,5,204.826,2,1,0,1,"loved","FP012","run1","change","social"
32,5,209.865,3.593,2,0,6,"have warm relationships","FP012","run1","change","social"
33,6,214.904,4.434,2,0,3,"overwhelmed","FP012","run1","change","ill-being"
34,5,219.893,4.141,1,0,4,"feel encouraged","FP012","run1","change","social"
35,4,224.899,1.839,2,0,3,"positive","FP012","run1","change","well-being"
36,4,230.088,3.33,1,0,5,"satisfied with life","FP012","run1","change","well-being"
1,3,5.066,1.436,1,0,2,"lonely","FP012","run2","self","ill-being"
2,3,10.038,1.864,2,0,2,"nervous","FP012","run2","self","ill-being"
3,2,15.077,1.097,1,1,4,"isolated","FP012","run2","self","social"
4,2,20.116,1.114,1,0,3,"have good friends","FP012","run2","self","social"
5,1,25.105,2.269,1,0,5,"interested in life","FP012","run2","self","well-being"
6,1,30.077,1.616,2,0,4,"engaged in tasks","FP012","run2","self","well-being"
7,4,44.844,2.274,1,0,3,"achieve goals","FP012","run2","change","well-being"
8,4,49.817,1.205,1,0,2,"hopeful","FP012","run2","change","well-being"
9,6,54.856,1.91,2,0,5,"unable to cope","FP012","run2","change","ill-being"
10,6,60.195,1.531,1,0,1,"stressed","FP012","run2","change","ill-being"
11,5,65.167,2.806,2,0,2,"trusted","FP012","run2","change","social"
12,6,70.123,1.035,1,0,1,"sad","FP012","run2","change","ill-being"
13,3,84.973,2.897,2,0,2,"anxious","FP012","run2","self","ill-being"
14,3,90.313,2.517,2,0,3,"feel useless","FP012","run2","self","ill-being"
15,1,95.285,1.449,2,0,2,"joyful","FP012","run2","self","well-being"
16,1,100.24,2.037,1,0,6,"live a meaningful life","FP012","run2","self","well-being"
17,2,105.246,1.304,1,0,3,"am cared for","FP012","run2","self","social"
18,3,110.219,1.451,1,0,2,"fearful","FP012","run2","self","ill-being"
19,6,124.935,2.039,2,0,4,"feel rejected","FP012","run2","change","ill-being"
20,4,129.924,2.882,1,0,3,"like myself","FP012","run2","change","well-being"
21,5,134.963,1.274,1,1,2,"angry","FP012","run2","change","social"
22,5,140.169,2.557,1,0,7,"have trusting relationships","FP012","run2","change","social"
23,4,145.125,1.713,1,0,2,"happy","FP012","run2","change","well-being"
24,6,150.081,3.053,2,0,5,"feel unimportant","FP012","run2","change","ill-being"
25,2,164.981,2.033,1,0,1,"loved","FP012","run2","self","social"
26,1,169.936,2.597,2,0,3,"positive","FP012","run2","self","well-being"
27,1,174.942,1.864,2,0,5,"satisfied with life","FP012","run2","self","well-being"
28,3,180.281,0.956,1,0,3,"overwhelmed","FP012","run2","self","ill-being"
29,2,185.404,2.202,2,0,6,"have warm relationships","FP012","run2","self","social"
30,2,190.376,3.198,1,0,4,"feel encouraged","FP012","run2","self","social"
31,5,205.093,3.057,1,0,3,"helped by friends","FP012","run2","change","social"
32,5,210.199,3.983,1,0,6,"belong in social group","FP012","run2","change","social"
33,6,215.204,2.889,2,0,3,"feel worthless","FP012","run2","change","ill-being"
34,5,220.26,2.066,1,0,5,"comfortable with friends","FP012","run2","change","social"
35,4,225.366,NA,0,0,6,"live a purposeful life","FP012","run2","change","well-being"
36,4,230.322,0.116,2,0,1,"proud","FP012","run2","change","well-being"
1,3,5.063,2.201,1,0,2,"lonely","FP013","run1","self","ill-being"
2,3,10.011,2.757,2,0,3,"feel worthless","FP013","run1","self","ill-being"
3,2,14.994,1.918,1,0,3,"am cared for","FP013","run1","self","social"
4,2,19.978,1.214,1,1,4,"isolated","FP013","run1","self","social"
5,1,24.96,1.936,1,0,3,"achieve goals","FP013","run1","self","well-being"
6,1,29.911,1.401,2,0,5,"satisfied with life","FP013","run1","self","well-being"
7,4,44.961,1.207,1,0,2,"hopeful","FP013","run1","change","well-being"
8,4,49.977,1.279,1,0,2,"happy","FP013","run1","change","well-being"
9,6,54.927,1.305,1,0,3,"feel useless","FP013","run1","change","ill-being"
10,6,60.098,0.974,1,0,1,"sad","FP013","run1","change","ill-being"
11,5,65.076,1.628,1,0,1,"loved","FP013","run1","change","social"
12,6,70.261,2.539,1,0,4,"feel rejected","FP013","run1","change","ill-being"
13,3,84.96,1.448,1,0,2,"anxious","FP013","run1","self","ill-being"
14,3,90.059,1.565,1,0,2,"nervous","FP013","run1","self","ill-being"
15,1,95.043,2.197,2,0,6,"live a purposeful life","FP013","run1","self","well-being"
16,1,100.026,1.718,2,0,3,"like myself","FP013","run1","self","well-being"
17,2,105.126,2.202,1,0,6,"have warm relationships","FP013","run1","self","social"
18,3,110.075,1.349,1,0,2,"fearful","FP013","run1","self","ill-being"
19,6,124.741,2.779,1,0,5,"unable to cope","FP013","run1","change","ill-being"
20,4,129.759,1.865,1,0,6,"live a meaningful life","FP013","run1","change","well-being"
21,5,134.789,1.275,1,0,7,"have trusting relationships","FP013","run1","change","social"
22,5,139.772,2.58,1,0,6,"belong in social group","FP013","run1","change","social"
23,4,144.721,1.647,1,0,2,"joyful","FP013","run1","change","well-being"
24,6,149.671,1.393,1,0,3,"overwhelmed","FP013","run1","change","ill-being"
25,2,164.408,1.84,1,0,5,"comfortable with friends","FP013","run1","self","social"
26,1,169.502,1.778,1,0,5,"interested in life","FP013","run1","self","well-being"
27,1,174.442,2.398,2,0,1,"proud","FP013","run1","self","well-being"
28,3,179.425,2.591,1,0,5,"feel unimportant","FP013","run1","self","ill-being"
29,2,184.516,1.108,1,0,3,"have good friends","FP013","run1","self","social"
30,2,189.532,2.316,1,0,2,"trusted","FP013","run1","self","social"
31,5,204.192,1.464,1,0,4,"feel encouraged","FP013","run1","change","social"
32,5,209.174,1.818,1,0,3,"helped by friends","FP013","run1","change","social"
33,6,214.125,1.123,1,0,1,"stressed","FP013","run1","change","ill-being"
34,5,219.145,1.159,1,1,2,"angry","FP013","run1","change","social"
35,4,224.125,1.571,1,0,4,"engaged in tasks","FP013","run1","change","well-being"
36,4,229.074,0.83,1,0,3,"positive","FP013","run1","change","well-being"
1,3,5.051,2.919,2,0,3,"feel useless","FP013","run2","self","ill-being"
2,3,10,2.689,1,0,1,"sad","FP013","run2","self","ill-being"
3,2,15.094,1.588,1,0,1,"loved","FP013","run2","self","social"
4,2,20.428,1.742,1,0,7,"have trusting relationships","FP013","run2","self","social"
5,1,25.41,1.671,1,0,2,"hopeful","FP013","run2","self","well-being"
6,1,30.393,2.193,2,0,2,"happy","FP013","run2","self","well-being"
7,4,45.06,3.029,1,0,3,"achieve goals","FP013","run2","change","well-being"
8,4,50.043,1.615,1,0,5,"satisfied with life","FP013","run2","change","well-being"
9,6,55.059,0.606,1,0,2,"lonely","FP013","run2","change","ill-being"
10,6,60.043,0.767,1,0,3,"feel worthless","FP013","run2","change","ill-being"
11,5,65.143,0.419,1,0,3,"am cared for","FP013","run2","change","social"
12,6,70.159,1.594,1,0,2,"anxious","FP013","run2","change","ill-being"
13,3,84.825,2.737,2,0,4,"feel rejected","FP013","run2","self","ill-being"
14,3,89.775,2.307,2,0,5,"unable to cope","FP013","run2","self","ill-being"
15,1,94.791,2.499,2,0,6,"live a meaningful life","FP013","run2","self","well-being"
16,1,99.773,3.164,1,0,2,"joyful","FP013","run2","self","well-being"
17,2,105.108,1.254,2,0,6,"belong in social group","FP013","run2","self","social"
18,3,110.09,3.128,2,0,3,"overwhelmed","FP013","run2","self","ill-being"
19,6,124.787,2.23,1,0,2,"nervous","FP013","run2","change","ill-being"
20,4,129.809,1.201,1,0,6,"live a purposeful life","FP013","run2","change","well-being"
21,5,134.786,0.823,1,1,4,"isolated","FP013","run2","change","social"
22,5,139.736,1.169,1,0,6,"have warm relationships","FP013","run2","change","social"
23,4,144.685,2.324,1,0,3,"like myself","FP013","run2","change","well-being"
24,6,150.009,1.081,1,0,2,"fearful","FP013","run2","change","ill-being"
25,2,164.749,3.412,1,0,4,"feel encouraged","FP013","run2","self","social"
26,1,169.732,3.054,1,0,4,"engaged in tasks","FP013","run2","self","well-being"
27,1,174.675,1.735,2,0,3,"positive","FP013","run2","self","well-being"
28,3,179.658,1.695,1,0,1,"stressed","FP013","run2","self","ill-being"
29,2,184.674,1.687,1,0,3,"helped by friends","FP013","run2","self","social"
30,2,189.774,3.027,2,1,2,"angry","FP013","run2","self","social"
31,5,204.441,1.273,1,0,5,"comfortable with friends","FP013","run2","change","social"
32,5,209.458,1.536,1,0,3,"have good friends","FP013","run2","change","social"
33,6,214.408,1.922,1,0,5,"feel unimportant","FP013","run2","change","ill-being"
34,5,219.508,2.206,1,0,2,"trusted","FP013","run2","change","social"
35,4,224.491,1.447,1,0,5,"interested in life","FP013","run2","change","well-being"
36,4,229.44,0.945,1,0,1,"proud","FP013","run2","change","well-being"
1,3,5.06,1.146,1,0,2,"anxious","FP014","run1","self","ill-being"
2,3,10.091,2.074,2,0,2,"nervous","FP014","run1","self","ill-being"
3,2,15.424,1.094,1,0,3,"have good friends","FP014","run1","self","social"
4,2,20.374,1.103,2,1,2,"angry","FP014","run1","self","social"
5,1,25.356,1.257,1,0,5,"satisfied with life","FP014","run1","self","well-being"
6,1,30.389,1.816,1,0,6,"live a meaningful life","FP014","run1","self","well-being"
7,4,45.055,3.831,1,0,2,"happy","FP014","run1","change","well-being"
8,4,50.003,2.066,1,0,1,"proud","FP014","run1","change","well-being"
9,6,54.953,3.181,1,0,2,"lonely","FP014","run1","change","ill-being"
10,6,59.936,1.717,2,0,1,"stressed","FP014","run1","change","ill-being"
11,5,65.259,3.674,2,0,6,"belong in social group","FP014","run1","change","social"
12,6,70.243,1.891,1,0,5,"feel unimportant","FP014","run1","change","ill-being"
13,3,84.9,1.433,2,0,5,"unable to cope","FP014","run1","self","ill-being"
14,3,89.925,4.136,2,0,3,"overwhelmed","FP014","run1","self","ill-being"
15,1,94.866,3.332,1,0,2,"joyful","FP014","run1","self","well-being"
16,1,99.808,0.989,1,0,3,"positive","FP014","run1","self","well-being"
17,2,104.792,2.822,2,1,4,"isolated","FP014","run1","self","social"
18,3,109.892,1.682,1,0,3,"feel useless","FP014","run1","self","ill-being"
19,6,124.558,1.711,1,0,1,"sad","FP014","run1","change","ill-being"
20,4,129.728,1.717,1,0,5,"interested in life","FP014","run1","change","well-being"
21,5,134.674,3.035,1,0,1,"loved","FP014","run1","change","social"
22,5,139.624,NA,0,0,7,"have trusting relationships","FP014","run1","change","social"
23,4,144.608,1.877,1,0,3,"achieve goals","FP014","run1","change","well-being"
24,6,149.591,2.454,1,0,3,"feel worthless","FP014","run1","change","ill-being"
25,2,164.291,1.618,1,0,5,"comfortable with friends","FP014","run1","self","social"
26,1,169.39,2.671,2,0,6,"live a purposeful life","FP014","run1","self","well-being"
27,1,174.373,2.793,2,0,4,"engaged in tasks","FP014","run1","self","well-being"
28,3,179.389,1.233,2,0,2,"fearful","FP014","run1","self","ill-being"
29,2,184.405,1.289,1,0,3,"am cared for","FP014","run1","self","social"
30,2,189.355,1.699,1,0,6,"have warm relationships","FP014","run1","self","social"
31,5,204.086,1.903,1,0,2,"trusted","FP014","run1","change","social"
32,5,209.036,1.754,1,0,3,"helped by friends","FP014","run1","change","social"
33,6,214.135,2.503,1,0,4,"feel rejected","FP014","run1","change","ill-being"
34,5,219.118,1.703,1,0,4,"feel encouraged","FP014","run1","change","social"
35,4,224.44,1.581,1,0,2,"hopeful","FP014","run1","change","well-being"
36,4,229.533,2.824,1,0,3,"like myself","FP014","run1","change","well-being"
1,3,5.05,2.347,1,0,2,"lonely","FP014","run2","self","ill-being"
2,3,9.992,1.366,2,0,1,"stressed","FP014","run2","self","ill-being"
3,2,14.976,2.182,1,0,6,"belong in social group","FP014","run2","self","social"
4,2,19.925,1.168,1,0,1,"loved","FP014","run2","self","social"
5,1,24.875,1.01,1,0,2,"happy","FP014","run2","self","well-being"
6,1,29.858,1.555,2,0,1,"proud","FP014","run2","self","well-being"
7,4,44.525,1.944,1,0,5,"satisfied with life","FP014","run2","change","well-being"
8,4,49.625,1.98,1,0,6,"live a meaningful life","FP014","run2","change","well-being"
9,6,54.575,3.07,2,0,2,"anxious","FP014","run2","change","ill-being"
10,6,59.559,1.727,2,0,2,"nervous","FP014","run2","change","ill-being"
11,5,64.542,1.176,1,0,3,"have good friends","FP014","run2","change","social"
12,6,69.557,3.944,1,0,5,"unable to cope","FP014","run2","change","ill-being"
13,3,84.225,1.941,1,0,5,"feel unimportant","FP014","run2","self","ill-being"
14,3,89.323,1.514,2,0,1,"sad","FP014","run2","self","ill-being"
15,1,94.306,1.283,1,0,5,"interested in life","FP014","run2","self","well-being"
16,1,99.289,1.484,1,0,3,"achieve goals","FP014","run2","self","well-being"
17,2,104.238,1.168,1,0,7,"have trusting relationships","FP014","run2","self","social"
18,3,109.22,2.681,1,0,3,"feel worthless","FP014","run2","self","ill-being"
19,6,123.92,1.694,1,0,3,"overwhelmed","FP014","run2","change","ill-being"
20,4,128.936,3.918,1,0,2,"joyful","FP014","run2","change","well-being"
21,5,133.885,2.76,1,1,2,"angry","FP014","run2","change","social"
22,5,139.207,2.286,1,1,4,"isolated","FP014","run2","change","social"
23,4,144.224,2.669,2,0,3,"positive","FP014","run2","change","well-being"
24,6,149.24,1.909,1,0,3,"feel useless","FP014","run2","change","ill-being"
25,2,164.282,1.259,1,0,2,"trusted","FP014","run2","self","social"
26,1,169.374,1.552,1,0,2,"hopeful","FP014","run2","self","well-being"
27,1,174.357,1.632,1,0,3,"like myself","FP014","run2","self","well-being"
28,3,179.68,1.542,2,0,4,"feel rejected","FP014","run2","self","ill-being"
29,2,184.623,1.638,1,0,3,"helped by friends","FP014","run2","self","social"
30,2,189.639,1.182,1,0,4,"feel encouraged","FP014","run2","self","social"
31,5,204.306,2.011,1,0,5,"comfortable with friends","FP014","run2","change","social"
32,5,209.406,1.255,1,0,3,"am cared for","FP014","run2","change","social"
33,6,214.572,3.313,2,0,2,"fearful","FP014","run2","change","ill-being"
34,5,219.523,3.315,1,0,6,"have warm relationships","FP014","run2","change","social"
35,4,224.539,1.075,1,0,6,"live a purposeful life","FP014","run2","change","well-being"
36,4,229.556,3.738,2,0,4,"engaged in tasks","FP014","run2","change","well-being"
1,3,5.06,2.045,2,0,2,"nervous","FP015","run1","self","ill-being"
2,3,10.007,1.697,2,0,3,"overwhelmed","FP015","run1","self","ill-being"
3,2,15.342,2.627,1,0,5,"comfortable with friends","FP015","run1","self","social"
4,2,20.324,3.253,1,0,7,"have trusting relationships","FP015","run1","self","social"
5,1,25.307,1.782,1,0,4,"engaged in tasks","FP015","run1","self","well-being"
6,1,30.34,2.029,1,0,3,"achieve goals","FP015","run1","self","well-being"
7,4,45.006,2.202,1,0,6,"live a purposeful life","FP015","run1","change","well-being"
8,4,49.989,2.388,1,0,5,"satisfied with life","FP015","run1","change","well-being"
9,6,54.938,1.655,1,0,3,"feel worthless","FP015","run1","change","ill-being"
10,6,59.921,1.232,1,0,1,"stressed","FP015","run1","change","ill-being"
11,5,65.019,2.006,1,0,3,"helped by friends","FP015","run1","change","social"
12,6,70.003,1.83,1,0,4,"feel rejected","FP015","run1","change","ill-being"
13,3,84.818,2.15,2,0,5,"feel unimportant","FP015","run1","self","ill-being"
14,3,89.767,1.634,2,0,2,"anxious","FP015","run1","self","ill-being"
15,1,94.706,1.231,1,0,2,"happy","FP015","run1","self","well-being"
16,1,99.649,1.703,1,0,2,"joyful","FP015","run1","self","well-being"
17,2,104.598,2.267,1,0,3,"am cared for","FP015","run1","self","social"
18,3,109.539,1.293,2,0,2,"lonely","FP015","run1","self","ill-being"
19,6,124.28,2.249,1,0,5,"unable to cope","FP015","run1","change","ill-being"
20,4,129.296,2.585,1,0,6,"live a meaningful life","FP015","run1","change","well-being"
21,5,134.279,1.786,1,0,6,"have warm relationships","FP015","run1","change","social"
22,5,139.294,2.002,1,0,3,"have good friends","FP015","run1","change","social"
23,4,144.239,1.522,1,0,3,"positive","FP015","run1","change","well-being"
24,6,149.222,2.283,1,0,2,"fearful","FP015","run1","change","ill-being"
25,2,163.889,1.832,1,1,4,"isolated","FP015","run1","self","social"
26,1,168.838,2.218,1,0,3,"like myself","FP015","run1","self","well-being"
27,1,174.005,2.588,1,0,1,"proud","FP015","run1","self","well-being"
28,3,179.021,1.252,2,0,1,"sad","FP015","run1","self","ill-being"
29,2,184.19,2.835,2,0,4,"feel encouraged","FP015","run1","self","social"
30,2,189.171,1.102,2,1,2,"angry","FP015","run1","self","social"
31,5,203.99,2.715,2,0,1,"loved","FP015","run1","change","social"
32,5,209.321,3.184,1,0,6,"belong in social group","FP015","run1","change","social"
33,6,214.271,1.786,1,0,3,"feel useless","FP015","run1","change","ill-being"
34,5,219.286,2.747,1,0,2,"trusted","FP015","run1","change","social"
35,4,224.236,1.573,1,0,2,"hopeful","FP015","run1","change","well-being"
36,4,229.251,2.606,1,0,5,"interested in life","FP015","run1","change","well-being"
1,3,5.061,1.26,2,0,3,"feel worthless","FP015","run2","self","ill-being"
2,3,10.093,2.028,2,0,1,"stressed","FP015","run2","self","ill-being"
3,2,15.11,2.355,1,0,3,"helped by friends","FP015","run2","self","social"
4,2,20.096,2.433,1,0,6,"have warm relationships","FP015","run2","self","social"
5,1,25.076,1.781,1,0,6,"live a purposeful life","FP015","run2","self","well-being"
6,1,30.059,1.182,1,0,5,"satisfied with life","FP015","run2","self","well-being"
7,4,44.726,2.675,1,0,4,"engaged in tasks","FP015","run2","change","well-being"
8,4,49.743,2.53,1,0,3,"achieve goals","FP015","run2","change","well-being"
9,6,54.759,1.562,1,0,2,"nervous","FP015","run2","change","ill-being"
10,6,59.741,1.596,1,0,3,"overwhelmed","FP015","run2","change","ill-being"
11,5,64.725,2.876,1,0,5,"comfortable with friends","FP015","run2","change","social"
12,6,69.707,1.774,1,0,5,"feel unimportant","FP015","run2","change","ill-being"
13,3,84.756,4.389,1,0,4,"feel rejected","FP015","run2","self","ill-being"
14,3,89.705,3.336,2,0,5,"unable to cope","FP015","run2","self","ill-being"
15,1,94.654,1.795,1,0,6,"live a meaningful life","FP015","run2","self","well-being"
16,1,99.671,1.002,1,0,3,"positive","FP015","run2","self","well-being"
17,2,104.653,3.404,2,0,3,"have good friends","FP015","run2","self","social"
18,3,109.753,1.056,2,0,2,"fearful","FP015","run2","self","ill-being"
19,6,124.452,2.165,1,0,2,"anxious","FP015","run2","change","ill-being"
20,4,129.775,1.402,1,0,2,"happy","FP015","run2","change","well-being"
21,5,134.95,1.803,1,0,7,"have trusting relationships","FP015","run2","change","social"
22,5,139.891,2.502,1,0,3,"am cared for","FP015","run2","change","social"
23,4,144.832,3.025,1,0,2,"joyful","FP015","run2","change","well-being"
24,6,149.849,1.488,1,0,2,"lonely","FP015","run2","change","ill-being"
25,2,164.658,1.255,1,0,1,"loved","FP015","run2","self","social"
26,1,169.607,1.018,1,0,2,"hopeful","FP015","run2","self","well-being"
27,1,174.623,1.842,1,0,5,"interested in life","FP015","run2","self","well-being"
28,3,179.573,1.836,2,0,3,"feel useless","FP015","run2","self","ill-being"
29,2,184.524,3.309,1,0,6,"belong in social group","FP015","run2","self","social"
30,2,189.624,1.313,1,0,2,"trusted","FP015","run2","self","social"
31,5,204.507,1.678,1,1,4,"isolated","FP015","run2","change","social"
32,5,209.49,2.087,1,0,4,"feel encouraged","FP015","run2","change","social"
33,6,214.441,1.4,1,0,1,"sad","FP015","run2","change","ill-being"
34,5,219.423,1.77,1,1,2,"angry","FP015","run2","change","social"
35,4,224.373,2.716,1,0,3,"like myself","FP015","run2","change","well-being"
36,4,229.356,1.453,1,0,1,"proud","FP015","run2","change","well-being"
1,3,5.058,1.499,2,0,5,"feel unimportant","FP016","run1","self","ill-being"
2,3,10.009,1.484,2,0,3,"feel useless","FP016","run1","self","ill-being"
3,2,15.008,1.277,1,0,7,"have trusting relationships","FP016","run1","self","social"
4,2,19.959,1.142,2,1,2,"angry","FP016","run1","self","social"
5,1,24.959,1.03,1,0,5,"interested in life","FP016","run1","self","well-being"
6,1,30.076,1.001,1,0,4,"engaged in tasks","FP016","run1","self","well-being"
7,4,44.794,1.683,1,0,3,"like myself","FP016","run1","change","well-being"
8,4,49.895,1.598,1,0,2,"happy","FP016","run1","change","well-being"
9,6,54.845,1.512,1,0,3,"feel worthless","FP016","run1","change","ill-being"
10,6,59.829,0.983,1,0,2,"nervous","FP016","run1","change","ill-being"
11,5,64.812,1.449,1,0,3,"have good friends","FP016","run1","change","social"
12,6,69.845,1.487,1,0,3,"overwhelmed","FP016","run1","change","ill-being"
13,3,84.746,1.066,2,0,2,"anxious","FP016","run1","self","ill-being"
14,3,89.698,1.411,1,0,1,"stressed","FP016","run1","self","ill-being"
15,1,94.681,1.196,1,0,2,"joyful","FP016","run1","self","well-being"
16,1,99.632,1.085,1,0,6,"live a purposeful life","FP016","run1","self","well-being"
17,2,104.582,1.519,1,0,6,"belong in social group","FP016","run1","self","social"
18,3,109.566,1.199,2,0,2,"fearful","FP016","run1","self","ill-being"
19,6,124.267,1.618,1,0,2,"lonely","FP016","run1","change","ill-being"
20,4,129.3,1.977,1,0,5,"satisfied with life","FP016","run1","change","well-being"
21,5,134.252,2.297,1,0,1,"loved","FP016","run1","change","social"
22,5,139.201,1.66,1,1,4,"isolated","FP016","run1","change","social"
23,4,144.152,2.029,1,0,6,"live a meaningful life","FP016","run1","change","well-being"
24,6,149.185,2.14,1,0,5,"unable to cope","FP016","run1","change","ill-being"
25,2,164.003,1.954,1,0,3,"helped by friends","FP016","run1","self","social"
26,1,169.002,1.523,1,0,3,"achieve goals","FP016","run1","self","well-being"
27,1,174.337,1.252,1,0,3,"positive","FP016","run1","self","well-being"
28,3,179.371,0.97,2,0,1,"sad","FP016","run1","self","ill-being"
29,2,184.404,0.961,1,0,2,"trusted","FP016","run1","self","social"
30,2,189.755,1.098,1,0,5,"comfortable with friends","FP016","run1","self","social"
31,5,204.421,1.928,1,0,3,"am cared for","FP016","run1","change","social"
32,5,209.388,1.745,1,0,6,"have warm relationships","FP016","run1","change","social"
33,6,214.489,1.836,1,0,4,"feel rejected","FP016","run1","change","ill-being"
34,5,219.822,2.159,1,0,4,"feel encouraged","FP016","run1","change","social"
35,4,224.856,2.365,2,0,2,"hopeful","FP016","run1","change","well-being"
36,4,229.806,1.518,1,0,1,"proud","FP016","run1","change","well-being"
1,3,5.054,1.156,2,0,3,"feel worthless","FP016","run2","self","ill-being"
2,3,10.088,1.202,2,0,2,"nervous","FP016","run2","self","ill-being"
3,2,15.088,1.226,1,0,3,"have good friends","FP016","run2","self","social"
4,2,20.272,1.01,1,0,1,"loved","FP016","run2","self","social"
5,1,25.272,0.946,1,0,3,"like myself","FP016","run2","self","well-being"
6,1,30.306,1.088,1,0,2,"happy","FP016","run2","self","well-being"
7,4,45.207,1.883,1,0,5,"interested in life","FP016","run2","change","well-being"
8,4,50.24,1.818,1,0,4,"engaged in tasks","FP016","run2","change","well-being"
9,6,55.274,2.056,1,0,5,"feel unimportant","FP016","run2","change","ill-being"
10,6,60.225,2.041,2,0,3,"feel useless","FP016","run2","change","ill-being"
11,5,65.191,1.499,1,0,7,"have trusting relationships","FP016","run2","change","social"
12,6,70.142,1.796,2,0,2,"anxious","FP016","run2","change","ill-being"
13,3,85.193,1.345,2,0,3,"overwhelmed","FP016","run2","self","ill-being"
14,3,90.144,1.114,2,0,2,"lonely","FP016","run2","self","ill-being"
15,1,95.143,1.051,1,0,5,"satisfied with life","FP016","run2","self","well-being"
16,1,100.095,1.291,1,0,6,"live a meaningful life","FP016","run2","self","well-being"
17,2,105.094,1.348,2,1,4,"isolated","FP016","run2","self","social"
18,3,110.045,1.34,2,0,5,"unable to cope","FP016","run2","self","ill-being"
19,6,124.762,1.6,1,0,1,"stressed","FP016","run2","change","ill-being"
20,4,129.746,1.768,1,0,2,"joyful","FP016","run2","change","well-being"
21,5,134.847,1.747,1,1,2,"angry","FP016","run2","change","social"
22,5,139.947,2.758,1,0,6,"belong in social group","FP016","run2","change","social"
23,4,144.947,2.407,1,0,6,"live a purposeful life","FP016","run2","change","well-being"
24,6,149.898,2.136,2,0,2,"fearful","FP016","run2","change","ill-being"
25,2,164.648,1.202,1,0,3,"am cared for","FP016","run2","self","social"
26,1,169.6,1.138,1,0,2,"hopeful","FP016","run2","self","well-being"
27,1,174.55,1.284,1,0,1,"proud","FP016","run2","self","well-being"
28,3,179.501,1.277,2,0,4,"feel rejected","FP016","run2","self","ill-being"
29,2,184.451,1.295,1,0,6,"have warm relationships","FP016","run2","self","social"
30,2,189.551,1.371,1,0,4,"feel encouraged","FP016","run2","self","social"
31,5,204.368,1.69,1,0,3,"helped by friends","FP016","run2","change","social"
32,5,209.368,1.594,1,0,2,"trusted","FP016","run2","change","social"
33,6,214.319,1.475,1,0,1,"sad","FP016","run2","change","ill-being"
34,5,219.318,2.035,1,0,5,"comfortable with friends","FP016","run2","change","social"
35,4,224.269,1.901,1,0,3,"achieve goals","FP016","run2","change","well-being"
36,4,229.257,1.641,1,0,3,"positive","FP016","run2","change","well-being"
1,3,5.055,1.472,2,0,1,"sad","FP017","run1","self","ill-being"
2,3,10.078,1.713,2,0,2,"anxious","FP017","run1","self","ill-being"
3,2,15.171,0.988,1,0,2,"trusted","FP017","run1","self","social"
4,2,20.27,1.872,1,0,3,"have good friends","FP017","run1","self","social"
5,1,25.604,1.146,1,0,3,"achieve goals","FP017","run1","self","well-being"
6,1,30.554,1.261,2,0,3,"positive","FP017","run1","self","well-being"
7,4,45.253,2.505,2,0,2,"hopeful","FP017","run1","change","well-being"
8,4,50.204,3.155,1,0,5,"interested in life","FP017","run1","change","well-being"
9,6,55.154,1.645,1,0,5,"feel unimportant","FP017","run1","change","ill-being"
10,6,60.103,1.391,1,0,1,"stressed","FP017","run1","change","ill-being"
11,5,65.203,2.275,1,0,4,"feel encouraged","FP017","run1","change","social"
12,6,70.187,1.796,1,0,2,"nervous","FP017","run1","change","ill-being"
13,3,85.236,1.603,2,0,3,"feel worthless","FP017","run1","self","ill-being"
14,3,90.336,1.087,2,0,3,"feel useless","FP017","run1","self","ill-being"
15,1,95.351,1.52,1,0,3,"like myself","FP017","run1","self","well-being"
16,1,100.334,1.424,1,0,2,"happy","FP017","run1","self","well-being"
17,2,105.283,2.339,1,0,6,"belong in social group","FP017","run1","self","social"
18,3,110.233,1.494,2,0,2,"fearful","FP017","run1","self","ill-being"
19,6,124.932,2.33,1,0,4,"feel rejected","FP017","run1","change","ill-being"
20,4,129.88,3.734,2,0,6,"live a purposeful life","FP017","run1","change","well-being"
21,5,134.913,3.269,2,0,6,"have warm relationships","FP017","run1","change","social"
22,5,140.235,2.276,1,0,7,"have trusting relationships","FP017","run1","change","social"
23,4,145.219,1.627,2,0,6,"live a meaningful life","FP017","run1","change","well-being"
24,6,150.202,1.685,1,0,3,"overwhelmed","FP017","run1","change","ill-being"
25,2,164.86,1.515,2,1,4,"isolated","FP017","run1","self","social"
26,1,169.802,1.996,1,0,2,"joyful","FP017","run1","self","well-being"
27,1,174.826,1.765,2,0,5,"satisfied with life","FP017","run1","self","well-being"
28,3,179.808,2.063,2,0,2,"lonely","FP017","run1","self","ill-being"
29,2,184.752,2.51,2,1,2,"angry","FP017","run1","self","social"
30,2,189.924,2.059,1,0,3,"am cared for","FP017","run1","self","social"
31,5,204.618,3.14,1,0,3,"helped by friends","FP017","run1","change","social"
32,5,209.634,2.212,2,0,1,"loved","FP017","run1","change","social"
33,6,214.652,1.771,1,0,5,"unable to cope","FP017","run1","change","ill-being"
34,5,219.634,3.108,2,0,5,"comfortable with friends","FP017","run1","change","social"
35,4,224.584,2.134,1,0,4,"engaged in tasks","FP017","run1","change","well-being"
36,4,229.568,3.03,1,0,1,"proud","FP017","run1","change","well-being"
1,3,5.047,1.861,2,0,5,"feel unimportant","FP017","run2","self","ill-being"
2,3,10.028,1.52,1,0,1,"stressed","FP017","run2","self","ill-being"
3,2,15.044,1.633,1,0,4,"feel encouraged","FP017","run2","self","social"
4,2,20.372,2.08,1,0,6,"have warm relationships","FP017","run2","self","social"
5,1,25.322,1.642,1,0,2,"hopeful","FP017","run2","self","well-being"
6,1,30.272,1.172,1,0,5,"interested in life","FP017","run2","self","well-being"
7,4,45.006,2.887,2,0,3,"achieve goals","FP017","run2","change","well-being"
8,4,50.023,NA,0,0,3,"positive","FP017","run2","change","well-being"
9,6,55.356,1.601,1,0,1,"sad","FP017","run2","change","ill-being"
10,6,60.372,0.904,1,0,2,"anxious","FP017","run2","change","ill-being"
11,5,65.472,1.357,1,0,2,"trusted","FP017","run2","change","social"
12,6,70.571,1.281,1,0,3,"feel worthless","FP017","run2","change","ill-being"
13,3,85.386,1.802,2,0,2,"nervous","FP017","run2","self","ill-being"
14,3,90.336,0.853,2,0,4,"feel rejected","FP017","run2","self","ill-being"
15,1,95.319,0.981,1,0,6,"live a purposeful life","FP017","run2","self","well-being"
16,1,100.301,0.975,1,0,6,"live a meaningful life","FP017","run2","self","well-being"
17,2,105.25,1.826,1,0,7,"have trusting relationships","FP017","run2","self","social"
18,3,110.234,1.987,2,0,3,"overwhelmed","FP017","run2","self","ill-being"
19,6,124.933,1.351,1,0,3,"feel useless","FP017","run2","change","ill-being"
20,4,129.915,2.569,1,0,3,"like myself","FP017","run2","change","well-being"
21,5,135.014,2.918,2,0,3,"have good friends","FP017","run2","change","social"
22,5,140.188,2.929,2,0,6,"belong in social group","FP017","run2","change","social"
23,4,145.171,1.689,1,0,2,"happy","FP017","run2","change","well-being"
24,6,150.155,1.17,1,0,2,"fearful","FP017","run2","change","ill-being"
25,2,164.821,2.135,2,0,3,"helped by friends","FP017","run2","self","social"
26,1,169.77,1.058,1,0,4,"engaged in tasks","FP017","run2","self","well-being"
27,1,174.786,2.538,1,0,1,"proud","FP017","run2","self","well-being"
28,3,179.77,2.026,2,0,5,"unable to cope","FP017","run2","self","ill-being"
29,2,184.72,1.412,1,0,1,"loved","FP017","run2","self","social"
30,2,189.67,1.174,1,0,5,"comfortable with friends","FP017","run2","self","social"
31,5,204.337,1.283,1,1,4,"isolated","FP017","run2","change","social"
32,5,209.286,0.894,1,1,2,"angry","FP017","run2","change","social"
33,6,214.237,1.144,1,0,2,"lonely","FP017","run2","change","ill-being"
34,5,219.187,1.433,2,0,3,"am cared for","FP017","run2","change","social"
35,4,224.203,1.281,1,0,2,"joyful","FP017","run2","change","well-being"
36,4,229.186,2.906,1,0,5,"satisfied with life","FP017","run2","change","well-being"
1,3,5.077,1.577,2,0,1,"sad","FP018","run1","self","ill-being"
2,3,10.027,1.019,2,0,2,"fearful","FP018","run1","self","ill-being"
3,2,15.138,1.34,1,0,5,"comfortable with friends","FP018","run1","self","social"
4,2,20.158,0.896,2,1,2,"angry","FP018","run1","self","social"
5,1,25.11,1.647,1,0,3,"achieve goals","FP018","run1","self","well-being"
6,1,30.098,0.86,1,0,1,"proud","FP018","run1","self","well-being"
7,4,44.842,2.123,1,0,3,"positive","FP018","run1","change","well-being"
8,4,49.826,0.98,1,0,2,"happy","FP018","run1","change","well-being"
9,6,54.809,1.269,1,0,1,"stressed","FP018","run1","change","ill-being"
10,6,59.759,2.759,2,0,5,"unable to cope","FP018","run1","change","ill-being"
11,5,64.707,2.707,1,0,3,"am cared for","FP018","run1","change","social"
12,6,69.809,2.117,2,0,5,"feel unimportant","FP018","run1","change","ill-being"
13,3,84.47,0.999,2,0,2,"nervous","FP018","run1","self","ill-being"
14,3,89.425,0.949,2,0,2,"lonely","FP018","run1","self","ill-being"
15,1,94.759,1.718,1,0,6,"live a purposeful life","FP018","run1","self","well-being"
16,1,99.742,0.976,1,0,2,"joyful","FP018","run1","self","well-being"
17,2,104.758,1.928,1,0,6,"belong in social group","FP018","run1","self","social"
18,3,109.775,1.142,2,0,2,"anxious","FP018","run1","self","ill-being"
19,6,124.475,1.763,1,0,3,"feel worthless","FP018","run1","change","ill-being"
20,4,129.452,3.281,2,0,3,"like myself","FP018","run1","change","well-being"
21,5,134.473,3.973,2,0,3,"helped by friends","FP018","run1","change","social"
22,5,139.425,2.788,1,0,1,"loved","FP018","run1","change","social"
23,4,144.597,2.96,2,0,6,"live a meaningful life","FP018","run1","change","well-being"
24,6,149.7,1.577,1,0,3,"overwhelmed","FP018","run1","change","ill-being"
25,2,164.374,1.272,2,1,4,"isolated","FP018","run1","self","social"
26,1,169.699,1.219,1,0,2,"hopeful","FP018","run1","self","well-being"
27,1,174.652,3.009,1,0,4,"engaged in tasks","FP018","run1","self","well-being"
28,3,179.639,1.414,2,0,4,"feel rejected","FP018","run1","self","ill-being"
29,2,184.591,2.126,2,0,4,"feel encouraged","FP018","run1","self","social"
30,2,189.579,1.53,1,0,6,"have warm relationships","FP018","run1","self","social"
31,5,204.24,1.541,1,0,3,"have good friends","FP018","run1","change","social"
32,5,209.424,1.206,1,0,7,"have trusting relationships","FP018","run1","change","social"
33,6,214.407,1.407,1,0,3,"feel useless","FP018","run1","change","ill-being"
34,5,219.391,1.895,1,0,2,"trusted","FP018","run1","change","social"
35,4,224.421,2.408,2,0,5,"satisfied with life","FP018","run1","change","well-being"
36,4,229.373,1.736,2,0,5,"interested in life","FP018","run1","change","well-being"
1,3,5.05,0.905,2,0,1,"stressed","FP018","run2","self","ill-being"
2,3,9.999,1.14,2,0,5,"unable to cope","FP018","run2","self","ill-being"
3,2,15.334,0.926,1,0,3,"am cared for","FP018","run2","self","social"
4,2,20.657,0.842,1,0,3,"helped by friends","FP018","run2","self","social"
5,1,25.644,0.791,1,0,3,"positive","FP018","run2","self","well-being"
6,1,30.747,0.72,1,0,2,"happy","FP018","run2","self","well-being"
7,4,45.45,2.866,2,0,3,"achieve goals","FP018","run2","change","well-being"
8,4,50.629,1.126,2,0,1,"proud","FP018","run2","change","well-being"
9,6,55.616,1.139,1,0,1,"sad","FP018","run2","change","ill-being"
10,6,60.633,0.866,1,0,2,"fearful","FP018","run2","change","ill-being"
11,5,65.622,2.405,2,0,5,"comfortable with friends","FP018","run2","change","social"
12,6,70.566,2.053,1,0,2,"nervous","FP018","run2","change","ill-being"
13,3,85.233,1.651,2,0,5,"feel unimportant","FP018","run2","self","ill-being"
14,3,90.216,0.843,2,0,3,"feel worthless","FP018","run2","self","ill-being"
15,1,95.161,0.922,1,0,3,"like myself","FP018","run2","self","well-being"
16,1,100.482,1.097,1,0,6,"live a meaningful life","FP018","run2","self","well-being"
17,2,105.433,0.755,1,0,1,"loved","FP018","run2","self","social"
18,3,110.415,1.101,2,0,3,"overwhelmed","FP018","run2","self","ill-being"
19,6,125.115,1.576,1,0,2,"lonely","FP018","run2","change","ill-being"
20,4,130.099,1.688,1,0,6,"live a purposeful life","FP018","run2","change","well-being"
21,5,135.048,0.907,1,1,2,"angry","FP018","run2","change","social"
22,5,140.032,3.251,1,0,6,"belong in social group","FP018","run2","change","social"
23,4,144.98,1.992,1,0,2,"joyful","FP018","run2","change","well-being"
24,6,149.932,1.463,1,0,2,"anxious","FP018","run2","change","ill-being"
25,2,164.594,1.057,1,0,3,"have good friends","FP018","run2","self","social"
26,1,169.549,1.366,1,0,5,"satisfied with life","FP018","run2","self","well-being"
27,1,174.568,1.483,1,0,5,"interested in life","FP018","run2","self","well-being"
28,3,179.547,1.032,2,0,3,"feel useless","FP018","run2","self","ill-being"
29,2,184.575,1.468,1,0,7,"have trusting relationships","FP018","run2","self","social"
30,2,189.529,1.322,1,0,2,"trusted","FP018","run2","self","social"
31,5,204.197,1.966,1,1,4,"isolated","FP018","run2","change","social"
32,5,209.226,1.929,2,0,4,"feel encouraged","FP018","run2","change","social"
33,6,214.213,3.03,2,0,4,"feel rejected","FP018","run2","change","ill-being"
34,5,219.248,3.203,1,0,6,"have warm relationships","FP018","run2","change","social"
35,4,224.263,1.196,1,0,2,"hopeful","FP018","run2","change","well-being"
36,4,229.357,1.294,1,0,4,"engaged in tasks","FP018","run2","change","well-being"
1,3,5.061,2.617,2,0,4,"feel rejected","FP019","run1","self","ill-being"
2,3,10.009,1.629,1,0,2,"anxious","FP019","run1","self","ill-being"
3,2,15.339,1.963,1,0,4,"feel encouraged","FP019","run1","self","social"
4,2,20.293,1.185,1,0,3,"have good friends","FP019","run1","self","social"
5,1,25.626,2.252,1,0,1,"proud","FP019","run1","self","well-being"
6,1,30.617,2.149,1,0,4,"engaged in tasks","FP019","run1","self","well-being"
7,4,45.326,1.872,1,0,5,"interested in life","FP019","run1","change","well-being"
8,4,50.309,1.433,1,0,3,"positive","FP019","run1","change","well-being"
9,6,55.292,1.114,1,0,2,"lonely","FP019","run1","change","ill-being"
10,6,60.242,1.196,1,0,3,"overwhelmed","FP019","run1","change","ill-being"
11,5,65.258,1.924,1,0,3,"helped by friends","FP019","run1","change","social"
12,6,70.359,1.463,1,0,2,"nervous","FP019","run1","change","ill-being"
13,3,85.256,2.254,2,0,3,"feel worthless","FP019","run1","self","ill-being"
14,3,90.208,3.222,2,0,1,"stressed","FP019","run1","self","ill-being"
15,1,95.308,1.882,1,0,2,"joyful","FP019","run1","self","well-being"
16,1,100.483,1.187,1,0,3,"like myself","FP019","run1","self","well-being"
17,2,105.469,2.905,1,0,7,"have trusting relationships","FP019","run1","self","social"
18,3,110.491,2.596,1,0,5,"unable to cope","FP019","run1","self","ill-being"
19,6,125.158,1.28,1,0,1,"sad","FP019","run1","change","ill-being"
20,4,130.105,0.869,1,0,2,"happy","FP019","run1","change","well-being"
21,5,135.124,3.194,1,0,3,"am cared for","FP019","run1","change","social"
22,5,140.108,3.114,1,0,2,"trusted","FP019","run1","change","social"
23,4,145.208,2.23,1,0,3,"achieve goals","FP019","run1","change","well-being"
24,6,150.536,2.734,1,0,3,"feel useless","FP019","run1","change","ill-being"
25,2,165.207,3.255,2,1,2,"angry","FP019","run1","self","social"
26,1,170.299,2.611,1,0,6,"live a purposeful life","FP019","run1","self","well-being"
27,1,175.287,1.384,1,0,2,"hopeful","FP019","run1","self","well-being"
28,3,180.24,1.822,1,0,2,"fearful","FP019","run1","self","ill-being"
29,2,185.224,3.374,1,0,6,"belong in social group","FP019","run1","self","social"
30,2,190.174,2.688,2,1,4,"isolated","FP019","run1","self","social"
31,5,204.873,2.493,1,0,6,"have warm relationships","FP019","run1","change","social"
32,5,209.861,3.729,1,0,5,"comfortable with friends","FP019","run1","change","social"
33,6,214.807,2.183,1,0,5,"feel unimportant","FP019","run1","change","ill-being"
34,5,219.752,1.014,1,0,1,"loved","FP019","run1","change","social"
35,4,224.705,NA,0,0,5,"satisfied with life","FP019","run1","change","well-being"
36,4,229.723,NA,0,0,6,"live a meaningful life","FP019","run1","change","well-being"
1,3,5.049,2.237,2,0,2,"lonely","FP019","run2","self","ill-being"
2,3,10.232,1.534,2,0,3,"overwhelmed","FP019","run2","self","ill-being"
3,2,15.215,3.247,1,0,3,"helped by friends","FP019","run2","self","social"
4,2,20.165,1.329,1,0,3,"am cared for","FP019","run2","self","social"
5,1,25.145,1.381,1,0,5,"interested in life","FP019","run2","self","well-being"
6,1,30.098,1.108,1,0,3,"positive","FP019","run2","self","well-being"
7,4,44.914,2.539,1,0,1,"proud","FP019","run2","change","well-being"
8,4,49.862,3.567,1,0,4,"engaged in tasks","FP019","run2","change","well-being"
9,6,54.848,1.67,1,0,4,"feel rejected","FP019","run2","change","ill-being"
10,6,59.797,1.632,1,0,2,"anxious","FP019","run2","change","ill-being"
11,5,64.814,3.04,1,0,4,"feel encouraged","FP019","run2","change","social"
12,6,69.793,1.116,1,0,3,"feel worthless","FP019","run2","change","ill-being"
13,3,84.615,2.511,1,0,2,"nervous","FP019","run2","self","ill-being"
14,3,89.598,1.352,2,0,1,"sad","FP019","run2","self","ill-being"
15,1,94.544,1.029,1,0,2,"happy","FP019","run2","self","well-being"
16,1,99.865,1.925,1,0,3,"achieve goals","FP019","run2","self","well-being"
17,2,104.885,1.544,1,0,2,"trusted","FP019","run2","self","social"
18,3,109.872,3.302,2,0,3,"feel useless","FP019","run2","self","ill-being"
19,6,124.614,1.184,1,0,1,"stressed","FP019","run2","change","ill-being"
20,4,129.563,2.019,1,0,2,"joyful","FP019","run2","change","well-being"
21,5,134.657,3.637,2,0,3,"have good friends","FP019","run2","change","social"
22,5,139.694,3.424,1,0,7,"have trusting relationships","FP019","run2","change","social"
23,4,144.68,NA,0,0,3,"like myself","FP019","run2","change","well-being"
