"trial","condition","onset","RT","response","reversed","syllables","item","subjectID","subNum","run","instruction","construct","RT_original","responseNum","responseYN","valence"
1,3,5.053,0.100937598603163,"yes",0,2,"nervous","FP001","001","run1","self","ill-being",1.881,1,"yes","negative"
2,3,9.996,0.378198735066685,NA,0,3,"unhappy","FP001","001","run1","self","ill-being",2.482,NA,NA,"negative"
3,2,15.092,0.709824435545369,"yes",0,4,"feel encouraged","FP001","001","run1","self","social",3.458,1,"yes","positive"
4,2,20.047,-0.0564968649603547,"yes",0,3,"have good friends","FP001","001","run1","self","social",1.607,1,"yes","positive"
5,1,25.062,0.154249057146951,"yes",0,6,"live a meaningful life","FP001","001","run1","self","well-being",1.984,1,"yes","positive"
6,1,30.012,-0.154486424502662,"yes",0,2,"happy","FP001","001","run1","self","well-being",1.457,1,"yes","positive"
7,4,44.712,0.014940640945506,"yes",0,2,"joyful","FP001","001","run1","change","well-being",1.726,1,"yes","positive"
8,4,49.651,0.159778098626097,"yes",0,3,"capable","FP001","001","run1","change","well-being",1.995,1,"yes","positive"
9,6,54.745,-0.0984343953777516,"yes",0,3,"overwhelmed","FP001","001","run1","change","ill-being",1.541,1,"yes","negative"
10,6,59.691,-0.313338139187156,"yes",1,2,"lonely","FP001","001","run1","change","social",1.243,0,"no","negative"
11,5,64.861,0.445955279898457,"yes",0,3,"am cared for","FP001","001","run1","change","social",2.656,1,"yes","positive"
12,6,69.845,0.24708183053668,"yes",0,2,"anxious","FP001","001","run1","change","ill-being",2.177,1,"yes","negative"
13,3,84.894,0.00211247669139369,"yes",0,2,"tired","FP001","001","run1","self","ill-being",1.704,1,"yes","negative"
14,3,89.845,-0.0906774075491803,"no",0,2,"depressed","FP001","001","run1","self","ill-being",1.553,0,"no","negative"
15,1,94.829,-0.341072380083075,"yes",0,3,"like myself","FP001","001","run1","self","well-being",1.209,1,"yes","positive"
16,1,99.92,0.295937613656889,"no",0,2,"cheerful","FP001","001","run1","self","well-being",2.286,0,"no","positive"
17,2,105.258,-0.256269118812605,"yes",0,5,"comfortable with friends","FP001","001","run1","self","social",1.316,1,"yes","positive"
18,3,110.244,0.031032942234261,"no",0,5,"feel invisible","FP001","001","run1","self","ill-being",1.754,0,"no","negative"
19,6,124.939,-0.0639922154789224,"yes",0,1,"stressed","FP001","001","run1","change","ill-being",1.595,1,"yes","negative"
20,4,130.109,0.258045850828594,"yes",0,4,"optimistic","FP001","001","run1","change","well-being",2.201,1,"yes","positive"
21,5,135.094,0.0745423145362083,"yes",1,3,"neglected","FP001","001","run1","change","social",1.832,0,"no","negative"
22,5,140.078,0.35784801238819,"yes",0,6,"have warm relationships","FP001","001","run1","change","social",2.432,1,"yes","positive"
23,4,145.061,0.493381921663517,"yes",0,3,"achieve goals","FP001","001","run1","change","well-being",2.785,1,"yes","positive"
24,6,150.006,0.235531690583808,"yes",0,5,"feel unimportant","FP001","001","run1","change","ill-being",2.152,1,"yes","negative"
25,2,164.711,-0.224116816546724,"yes",0,5,"have support systems","FP001","001","run1","self","social",1.359,1,"yes","positive"
26,1,169.654,0.00679632600382007,"yes",0,6,"live a purposeful life","FP001","001","run1","self","well-being",1.712,1,"yes","positive"
27,1,174.594,-0.0484398024714375,"yes",0,5,"satisfied with life","FP001","001","run1","self","well-being",1.62,1,"yes","positive"
28,3,179.577,0.395375111011593,"no",0,4,"feel rejected","FP001","001","run1","self","ill-being",2.525,0,"no","negative"
29,2,184.594,0.465344403334298,"no",1,4,"isolated","FP001","001","run1","self","social",2.708,1,"yes","negative"
30,2,189.535,-0.0367796519540376,"no",1,5,"alienated","FP001","001","run1","self","social",1.639,1,"yes","negative"
31,5,204.277,0.546522700500753,"yes",0,2,"trusted","FP001","001","run1","change","social",2.937,1,"yes","positive"
32,5,209.215,0.75643646019721,"no",0,1,"loved","FP001","001","run1","change","social",3.623,0,"no","positive"
33,6,214.236,0.487981368483517,"yes",0,5,"unable to cope","FP001","001","run1","change","ill-being",2.77,1,"yes","negative"
34,5,219.176,0.0423709321716575,"yes",0,2,"well-liked","FP001","001","run1","change","social",1.774,1,"yes","positive"
35,4,224.51,0.129758037138655,"yes",0,5,"full of energy","FP001","001","run1","change","well-being",1.936,1,"yes","positive"
36,4,229.461,0.637583296541159,"yes",0,1,"proud","FP001","001","run1","change","well-being",3.217,1,"yes","positive"
1,3,5.049,0.017833324478342,"no",0,3,"overwhelmed","FP001","001","run2","self","ill-being",1.731,0,"no","negative"
2,3,10.035,0.294186299724154,"yes",1,2,"lonely","FP001","001","run2","self","social",2.282,0,"no","negative"
3,2,15.356,0.224786434195612,"yes",0,3,"am cared for","FP001","001","run2","self","social",2.129,1,"yes","positive"
4,2,20.341,-0.0558747809589556,"no",1,3,"neglected","FP001","001","run2","self","social",1.608,1,"yes","negative"
5,1,25.429,0.120938265309833,"no",0,2,"joyful","FP001","001","run2","self","well-being",1.919,0,"no","positive"
6,1,30.374,-0.426505936391487,"yes",0,3,"capable","FP001","001","run2","self","well-being",1.11,1,"yes","positive"
7,4,45.191,0.872777047738773,"yes",0,6,"live a meaningful life","FP001","001","run2","change","well-being",4.07,1,"yes","positive"
8,4,50.13,-0.137473424841835,"yes",0,2,"happy","FP001","001","run2","change","well-being",1.482,1,"yes","positive"
9,6,55.151,-0.113472272742292,"yes",0,2,"nervous","FP001","001","run2","change","ill-being",1.518,1,"yes","negative"
10,6,60.171,0.325250057122355,"yes",0,3,"unhappy","FP001","001","run2","change","ill-being",2.354,1,"yes","negative"
11,5,65.19,1.01200471644626,"no",0,4,"feel encouraged","FP001","001","run2","change","social",4.678,0,"no","positive"
12,6,70.273,0.677497200911499,"yes",0,2,"tired","FP001","001","run2","change","ill-being",3.348,1,"yes","negative"
13,3,84.973,0.010876774684982,"no",0,2,"anxious","FP001","001","run2","self","ill-being",1.719,0,"no","negative"
14,3,89.956,-0.160682657752206,"no",0,1,"stressed","FP001","001","run2","self","ill-being",1.448,0,"no","negative"
15,1,94.896,0.465344403334298,"yes",0,4,"optimistic","FP001","001","run2","self","well-being",2.708,1,"yes","positive"
16,1,99.839,0.132337352471143,"yes",0,3,"achieve goals","FP001","001","run2","self","well-being",1.941,1,"yes","positive"
17,2,104.823,0.48942437017691,"yes",0,6,"have warm relationships","FP001","001","run2","self","social",2.774,1,"yes","positive"
18,3,109.774,0.87694525286641,"no",0,5,"feel unimportant","FP001","001","run2","self","ill-being",4.087,0,"no","negative"
19,6,124.573,-0.0120721583005627,"yes",0,2,"depressed","FP001","001","run2","change","ill-being",1.68,1,"yes","negative"
20,4,129.553,0.151725714904698,"yes",0,3,"like myself","FP001","001","run2","change","well-being",1.979,1,"yes","positive"
21,5,134.573,0.0918587645476693,"yes",0,3,"have good friends","FP001","001","run2","change","social",1.864,1,"yes","positive"
22,5,139.673,0.719608686261625,"no",0,5,"comfortable with friends","FP001","001","run2","change","social",3.492,0,"no","positive"
23,4,144.998,0.848907192413895,"no",0,2,"cheerful","FP001","001","run2","change","well-being",3.974,0,"no","positive"
24,6,149.987,0.134910032048083,"yes",0,5,"feel invisible","FP001","001","run2","change","ill-being",1.946,1,"yes","negative"
25,2,164.639,-0.0276693551142307,"yes",0,2,"trusted","FP001","001","run2","self","social",1.654,1,"yes","positive"
26,1,169.583,-0.173191507443914,"no",0,5,"full of energy","FP001","001","run2","self","well-being",1.43,0,"no","positive"
27,1,174.537,-0.518937380850456,"yes",0,1,"proud","FP001","001","run2","self","well-being",1.012,1,"yes","positive"
28,3,179.556,-0.234471938661928,"no",0,5,"unable to cope","FP001","001","run2","self","ill-being",1.345,0,"no","negative"
29,2,184.493,-0.166917523810499,"yes",0,1,"loved","FP001","001","run2","self","social",1.439,1,"yes","positive"
30,2,189.471,-0.162756630151335,"yes",0,2,"well-liked","FP001","001","run2","self","social",1.445,1,"yes","positive"
31,5,204.139,0.371731453026422,"yes",0,5,"have support systems","FP001","001","run2","change","social",2.466,1,"yes","positive"
32,5,209.304,-0.146965021523406,"yes",1,4,"isolated","FP001","001","run2","change","social",1.468,0,"no","negative"
33,6,214.248,0.280952758561714,"yes",0,4,"feel rejected","FP001","001","run2","change","ill-being",2.252,1,"yes","negative"
34,5,219.235,-0.30852272057229,"yes",1,5,"alienated","FP001","001","run2","change","social",1.249,0,"no","negative"
35,4,224.405,NA,NA,0,6,"live a purposeful life","FP001","001","run2","change","well-being",NA,NA,NA,"positive"
36,4,229.387,-2.86391025219448,"yes",0,5,"satisfied with life","FP001","001","run2","change","well-being",0.097,1,"yes","positive"
1,3,5.052,-0.153114682175082,"yes",0,3,"unhappy","FP002","002","run1","self","ill-being",1.459,1,"yes","negative"
2,3,9.994,0.0143610987675928,"no",0,1,"stressed","FP002","002","run1","self","ill-being",1.725,0,"no","negative"
3,2,14.977,-0.405996969669861,"yes",0,2,"well-liked","FP002","002","run1","self","social",1.133,1,"yes","positive"
4,2,19.924,0.0891727570235767,"yes",0,5,"have support systems","FP002","002","run1","self","social",1.859,1,"yes","positive"
5,1,25.26,-0.366199330160496,"yes",0,3,"achieve goals","FP002","002","run1","self","well-being",1.179,1,"yes","positive"
6,1,30.21,-0.163448911245096,"yes",0,2,"joyful","FP002","002","run1","self","well-being",1.444,1,"yes","positive"
7,4,44.943,0.150208647609946,"no",0,2,"happy","FP002","002","run1","change","well-being",1.976,0,"no","positive"
8,4,49.893,0.265288978918444,"yes",0,4,"optimistic","FP002","002","run1","change","well-being",2.217,1,"yes","positive"
9,6,54.91,0.186485917541032,"yes",0,3,"overwhelmed","FP002","002","run1","change","ill-being",2.049,1,"yes","negative"
10,6,59.927,0.13798853627517,"yes",0,2,"nervous","FP002","002","run1","change","ill-being",1.952,1,"yes","negative"
11,5,64.872,0.663965194692922,"yes",1,5,"alienated","FP002","002","run1","change","social",3.303,0,"no","negative"
12,6,69.859,0.499824320466921,"yes",0,5,"feel invisible","FP002","002","run1","change","ill-being",2.803,1,"yes","negative"
13,3,84.738,0.444825123439872,"yes",0,2,"tired","FP002","002","run1","self","ill-being",2.653,1,"yes","negative"
14,3,89.758,-0.165528634698345,"no",0,5,"unable to cope","FP002","002","run1","self","ill-being",1.441,0,"no","negative"
15,1,94.861,0.0668710440395569,"yes",0,5,"satisfied with life","FP002","002","run1","self","well-being",1.818,1,"yes","positive"
16,1,99.875,0.311993502072542,"yes",0,6,"live a purposeful life","FP002","002","run1","self","well-being",2.323,1,"yes","positive"
17,2,105.201,-0.344386384773112,"yes",0,3,"have good friends","FP002","002","run1","self","social",1.205,1,"yes","positive"
18,3,110.292,-0.105598216311386,"no",0,2,"anxious","FP002","002","run1","self","ill-being",1.53,0,"no","negative"
19,6,124.959,0.153744897821929,"yes",0,2,"depressed","FP002","002","run1","change","ill-being",1.983,1,"yes","negative"
20,4,129.903,-0.253234215117451,"yes",0,2,"cheerful","FP002","002","run1","change","well-being",1.32,1,"yes","positive"
21,5,134.856,0.4300156634863,"no",0,4,"feel encouraged","FP002","002","run1","change","social",2.614,0,"no","positive"
22,5,139.875,0.485451094225549,"yes",1,4,"isolated","FP002","002","run1","change","social",2.763,0,"no","negative"
23,4,144.825,0.643781023228377,"no",0,3,"capable","FP002","002","run1","change","well-being",3.237,0,"no","positive"
24,6,149.808,0.357025305636727,"yes",0,5,"feel unimportant","FP002","002","run1","change","ill-being",2.43,1,"yes","negative"
25,2,164.475,-0.163448911245096,"yes",0,5,"comfortable with friends","FP002","002","run1","self","social",1.444,1,"yes","positive"
26,1,169.457,-0.157235567127584,"yes",0,5,"full of energy","FP002","002","run1","self","well-being",1.453,1,"yes","positive"
27,1,174.774,-0.183029956444202,"yes",0,3,"like myself","FP002","002","run1","self","well-being",1.416,1,"yes","positive"
28,3,179.755,-0.244935412302756,"no",1,2,"lonely","FP002","002","run1","self","social",1.331,1,"yes","negative"
29,2,184.709,-0.301342793437481,"yes",0,1,"loved","FP002","002","run1","self","social",1.258,1,"yes","positive"
30,2,189.724,-0.473540885096461,"no",1,3,"neglected","FP002","002","run1","self","social",1.059,1,"yes","negative"
31,5,204.423,0.521004074400248,"no",0,3,"am cared for","FP002","002","run1","change","social",2.863,0,"no","positive"
32,5,209.375,0.178154578000505,"yes",0,6,"have warm relationships","FP002","002","run1","change","social",2.032,1,"yes","positive"
33,6,214.358,0.73917545257991,"yes",0,4,"feel rejected","FP002","002","run1","change","ill-being",3.561,1,"yes","negative"
34,5,219.525,0.221493088476061,"yes",0,2,"trusted","FP002","002","run1","change","social",2.122,1,"yes","positive"
35,4,224.471,0.370920093955543,"no",0,6,"live a meaningful life","FP002","002","run1","change","well-being",2.464,0,"no","positive"
36,4,229.575,0.307246999094401,"no",0,1,"proud","FP002","002","run1","change","well-being",2.312,0,"no","positive"
1,3,5.052,0.358670042849605,"no",0,3,"overwhelmed","FP002","002","run2","self","ill-being",2.434,0,"no","negative"
2,3,10.087,-0.128071072163445,"yes",0,2,"nervous","FP002","002","run2","self","ill-being",1.496,1,"yes","negative"
3,2,15.036,-0.210232779124264,"no",1,5,"alienated","FP002","002","run2","self","social",1.378,1,"yes","negative"
4,2,20.019,-0.407763754581747,"yes",0,4,"feel encouraged","FP002","002","run2","self","social",1.131,1,"yes","positive"
5,1,24.964,-0.586378661645989,"yes",0,2,"happy","FP002","002","run2","self","well-being",0.946,1,"yes","positive"
6,1,29.918,-0.499367284656359,"yes",0,4,"optimistic","FP002","002","run2","self","well-being",1.032,1,"yes","positive"
7,4,44.613,0.287150210890084,"no",0,3,"achieve goals","FP002","002","run2","change","well-being",2.266,0,"no","positive"
8,4,49.552,0.357025305636727,"no",0,2,"joyful","FP002","002","run2","change","well-being",2.43,0,"no","positive"
9,6,54.534,-0.0913215299547032,"yes",0,3,"unhappy","FP002","002","run2","change","ill-being",1.552,1,"yes","negative"
10,6,59.518,-0.0913215299547032,"yes",0,1,"stressed","FP002","002","run2","change","ill-being",1.552,1,"yes","negative"
11,5,64.502,0.559714165255115,"yes",0,2,"well-liked","FP002","002","run2","change","social",2.976,1,"yes","positive"
12,6,69.668,-0.282444593217252,"yes",0,2,"tired","FP002","002","run2","change","ill-being",1.282,1,"yes","negative"
13,3,84.368,-0.145603550925085,"no",0,5,"feel invisible","FP002","002","run2","self","ill-being",1.47,0,"no","negative"
14,3,89.461,-0.314142968204443,"no",0,2,"depressed","FP002","002","run2","self","ill-being",1.242,0,"no","negative"
15,1,94.401,-0.517949726449184,"yes",0,2,"cheerful","FP002","002","run2","self","well-being",1.013,1,"yes","positive"
16,1,99.501,-0.32792510771904,"yes",0,3,"capable","FP002","002","run2","self","well-being",1.225,1,"yes","positive"
17,2,104.438,-0.453904910579602,"no",1,4,"isolated","FP002","002","run2","self","social",1.08,1,"yes","negative"
18,3,109.458,-0.014455949655839,"no",0,5,"feel unimportant","FP002","002","run2","self","ill-being",1.676,0,"no","negative"
19,6,124.168,0.608888280283555,"yes",0,5,"unable to cope","FP002","002","run2","change","ill-being",3.126,1,"yes","negative"
20,4,129.333,0.0923951013800486,"no",0,5,"satisfied with life","FP002","002","run2","change","well-being",1.865,0,"no","positive"
21,5,134.277,0.0440605974567839,"no",0,5,"have support systems","FP002","002","run2","change","social",1.777,0,"no","positive"
22,5,139.297,0.223376328204026,"no",0,3,"have good friends","FP002","002","run2","change","social",2.126,0,"no","positive"
23,4,144.401,0.729014484548502,"no",0,6,"live a purposeful life","FP002","002","run2","change","well-being",3.525,0,"no","positive"
24,6,149.35,0.0253153737710576,"yes",0,2,"anxious","FP002","002","run2","change","ill-being",1.744,1,"yes","negative"
25,2,164.049,-0.385035503504191,"yes",0,3,"am cared for","FP002","002","run2","self","social",1.157,1,"yes","positive"
26,1,169.368,0.112040012407468,"yes",0,6,"live a meaningful life","FP002","002","run2","self","well-being",1.902,1,"yes","positive"
27,1,174.384,-0.047205996022509,"yes",0,1,"proud","FP002","002","run2","self","well-being",1.622,1,"yes","positive"
28,3,179.325,-0.240437653595924,"no",0,4,"feel rejected","FP002","002","run2","self","ill-being",1.337,0,"no","negative"
29,2,184.35,-0.375573067309695,"yes",0,6,"have warm relationships","FP002","002","run2","self","social",1.168,1,"yes","positive"
30,2,189.666,-0.457615489976138,"yes",0,2,"trusted","FP002","002","run2","self","social",1.076,1,"yes","positive"
31,5,204.366,0.178154578000505,"no",0,5,"comfortable with friends","FP002","002","run2","change","social",2.032,0,"no","positive"
32,5,209.347,-0.104944835040184,"no",0,1,"loved","FP002","002","run2","change","social",1.531,0,"no","positive"
33,6,214.366,-0.14969353617661,"yes",1,2,"lonely","FP002","002","run2","change","social",1.464,0,"no","negative"
34,5,219.466,0.423105847126113,"yes",1,3,"neglected","FP002","002","run2","change","social",2.596,0,"no","negative"
35,4,224.408,0.512233627022121,"yes",0,5,"full of energy","FP002","002","run2","change","well-being",2.838,1,"yes","positive"
36,4,229.428,0.240167767501286,"no",0,3,"like myself","FP002","002","run2","change","well-being",2.162,0,"no","positive"
1,3,5.08,0.173221168882549,"no",0,5,"feel unimportant","FP003","003","run1","self","ill-being",2.022,0,"no","negative"
2,3,10.18,-0.0646193713477069,"no",0,4,"feel rejected","FP003","003","run1","self","ill-being",1.594,0,"no","negative"
3,2,15.506,-0.294214050376728,"yes",0,5,"have support systems","FP003","003","run1","self","social",1.267,1,"yes","positive"
4,2,20.494,-0.0919660675213285,"yes",0,2,"well-liked","FP003","003","run1","self","social",1.551,1,"yes","positive"
5,1,25.447,-0.317368777453326,"yes",0,2,"happy","FP003","003","run1","self","well-being",1.238,1,"yes","positive"
6,1,30.396,0.0880963306548385,"yes",0,5,"full of energy","FP003","003","run1","self","well-being",1.857,1,"yes","positive"
7,4,45.094,0.157771073366329,"yes",0,3,"like myself","FP003","003","run1","change","well-being",1.991,1,"yes","positive"
8,4,50.046,0.367668058569166,"yes",0,6,"live a purposeful life","FP003","003","run1","change","well-being",2.456,1,"yes","positive"
9,6,55.029,-0.431020616746014,"yes",0,1,"stressed","FP003","003","run1","change","ill-being",1.105,1,"yes","negative"
10,6,59.971,-0.22191174398841,"yes",0,2,"depressed","FP003","003","run1","change","ill-being",1.362,1,"yes","negative"
11,5,65.145,-0.268501687248239,"yes",0,5,"comfortable with friends","FP003","003","run1","change","social",1.3,1,"yes","positive"
12,6,70.162,0.143607963578594,"yes",0,5,"unable to cope","FP003","003","run1","change","ill-being",1.963,1,"yes","negative"
13,3,84.888,-0.173891052768,"yes",0,2,"tired","FP003","003","run1","self","ill-being",1.429,1,"yes","negative"
14,3,89.829,-0.417537266408727,"no",0,2,"anxious","FP003","003","run1","self","ill-being",1.12,0,"no","negative"
15,1,94.812,-0.347711408617884,"no",0,2,"cheerful","FP003","003","run1","self","well-being",1.201,0,"no","positive"
16,1,99.795,-0.100383080632278,"no",0,4,"optimistic","FP003","003","run1","self","well-being",1.538,0,"no","positive"
17,2,104.886,-0.171793883177276,"no",1,5,"alienated","FP003","003","run1","self","social",1.432,1,"yes","negative"
18,3,109.862,-0.641797512423012,"no",0,2,"nervous","FP003","003","run1","self","ill-being",0.895,0,"no","negative"
19,6,124.562,0.0810711734186719,"yes",0,3,"unhappy","FP003","003","run1","change","ill-being",1.844,1,"yes","negative"
20,4,129.504,-0.18515084801334,"yes",0,5,"satisfied with life","FP003","003","run1","change","well-being",1.413,1,"yes","positive"
21,5,134.444,-0.402472736947331,"yes",0,3,"am cared for","FP003","003","run1","change","social",1.137,1,"yes","positive"
22,5,139.461,-0.2902754867978,"yes",0,2,"trusted","FP003","003","run1","change","social",1.272,1,"yes","positive"
23,4,144.413,-0.253234215117451,"yes",0,3,"capable","FP003","003","run1","change","well-being",1.32,1,"yes","positive"
24,6,149.512,-0.419324576982823,"yes",0,5,"feel invisible","FP003","003","run1","change","ill-being",1.118,1,"yes","negative"
25,2,164.211,0.378198735066685,"no",0,6,"have warm relationships","FP003","003","run1","self","social",2.482,0,"no","positive"
26,1,169.149,-0.138823863939707,"yes",0,2,"joyful","FP003","003","run1","self","well-being",1.48,1,"yes","positive"
27,1,174.17,-0.386765607741973,"yes",0,6,"live a meaningful life","FP003","003","run1","self","well-being",1.155,1,"yes","positive"
28,3,179.111,0.278730041487462,"yes",1,2,"lonely","FP003","003","run1","self","social",2.247,0,"no","negative"
29,2,184.06,-0.61316119444256,"yes",0,1,"loved","FP003","003","run1","self","social",0.921,1,"yes","positive"
30,2,189.381,-0.499367284656359,"no",1,3,"neglected","FP003","003","run1","self","social",1.032,1,"yes","negative"
31,5,204.043,-0.209507352904566,"yes",0,3,"have good friends","FP003","003","run1","change","social",1.379,1,"yes","positive"
32,5,209.027,-0.153114682175082,"yes",1,4,"isolated","FP003","003","run1","change","social",1.459,0,"no","negative"
33,6,214.348,-0.252476926175542,"yes",0,3,"overwhelmed","FP003","003","run1","change","ill-being",1.321,1,"yes","negative"
34,5,219.328,0.320139313459795,"yes",0,4,"feel encouraged","FP003","003","run1","change","social",2.342,1,"yes","positive"
35,4,224.494,-0.260075746934168,"yes",0,1,"proud","FP003","003","run1","change","well-being",1.311,1,"yes","positive"
36,4,229.476,-0.138148416430068,"yes",0,3,"achieve goals","FP003","003","run1","change","well-being",1.481,1,"yes","positive"
1,3,5.055,-0.241185876601276,"yes",0,1,"stressed","FP003","003","run2","self","ill-being",1.336,1,"yes","negative"
2,3,10.042,-0.660974637062751,"no",0,2,"depressed","FP003","003","run2","self","ill-being",0.878,0,"no","negative"
3,2,15.229,-0.333655782428025,"yes",0,5,"comfortable with friends","FP003","003","run2","self","social",1.218,1,"yes","positive"
4,2,20.212,-0.131418915933129,"yes",0,3,"am cared for","FP003","003","run2","self","social",1.491,1,"yes","positive"
5,1,25.162,-0.40511474641017,"yes",0,3,"like myself","FP003","003","run2","self","well-being",1.134,1,"yes","positive"
6,1,30.262,-0.301342793437481,"yes",0,6,"live a purposeful life","FP003","003","run2","self","well-being",1.258,1,"yes","positive"
7,4,45.296,-0.356072661342567,"yes",0,2,"happy","FP003","003","run2","change","well-being",1.191,1,"yes","positive"
8,4,50.237,-0.0349509406854938,"yes",0,5,"full of energy","FP003","003","run2","change","well-being",1.642,1,"yes","positive"
9,6,55.342,-0.0204404079710794,"yes",0,5,"feel unimportant","FP003","003","run2","change","ill-being",1.666,1,"yes","negative"
10,6,60.329,-0.531866452049314,"yes",0,4,"feel rejected","FP003","003","run2","change","ill-being",0.999,1,"yes","negative"
11,5,65.648,-0.161373504066383,"yes",0,5,"have support systems","FP003","003","run2","change","social",1.447,1,"yes","positive"
12,6,70.595,-0.526873930446193,"yes",0,2,"tired","FP003","003","run2","change","ill-being",1.004,1,"yes","negative"
13,3,85.328,-0.031910500520227,"no",0,5,"unable to cope","FP003","003","run2","self","ill-being",1.647,0,"no","negative"
14,3,90.345,-0.0977856765745925,"no",0,3,"unhappy","FP003","003","run2","self","ill-being",1.542,0,"no","negative"
15,1,95.329,0.185509354963422,"yes",0,5,"satisfied with life","FP003","003","run2","self","well-being",2.047,1,"yes","positive"
16,1,100.308,-0.645155098117858,"yes",0,3,"capable","FP003","003","run2","self","well-being",0.892,1,"yes","positive"
17,2,105.478,-0.401593616011591,"yes",0,2,"trusted","FP003","003","run2","self","social",1.138,1,"yes","positive"
18,3,110.462,-0.126735066620702,"no",0,5,"feel invisible","FP003","003","run2","self","ill-being",1.498,0,"no","negative"
19,6,125.509,-0.216055211875697,"yes",0,2,"anxious","FP003","003","run2","change","ill-being",1.37,1,"yes","negative"
20,4,130.528,-0.715991435842419,"yes",0,2,"cheerful","FP003","003","run2","change","well-being",0.831,1,"yes","positive"
21,5,135.479,0.307679431533572,"yes",0,2,"well-liked","FP003","003","run2","change","social",2.313,1,"yes","positive"
22,5,140.461,-0.408648318991481,"yes",1,5,"alienated","FP003","003","run2","change","social",1.13,0,"no","negative"
23,4,145.44,0.0613553102542546,"no",0,4,"optimistic","FP003","003","run2","change","well-being",1.808,0,"no","positive"
24,6,150.393,-0.241934659863517,"yes",0,2,"nervous","FP003","003","run2","change","ill-being",1.335,1,"yes","negative"
25,2,165.204,-0.0533903076312937,"yes",0,3,"have good friends","FP003","003","run2","self","social",1.612,1,"yes","positive"
26,1,170.224,-0.640680817722937,"yes",0,1,"proud","FP003","003","run2","self","well-being",0.896,1,"yes","positive"
27,1,175.178,-0.412194421998232,"yes",0,3,"achieve goals","FP003","003","run2","self","well-being",1.126,1,"yes","positive"
28,3,180.161,-0.23670491316624,"no",0,3,"overwhelmed","FP003","003","run2","self","ill-being",1.342,0,"no","negative"
29,2,185.177,-0.189406173583478,"no",1,4,"isolated","FP003","003","run2","self","social",1.407,1,"yes","negative"
30,2,190.122,-0.129408865005105,"yes",0,4,"feel encouraged","FP003","003","run2","self","social",1.494,1,"yes","positive"
31,5,204.777,-0.195108256032386,"yes",0,6,"have warm relationships","FP003","003","run2","change","social",1.399,1,"yes","positive"
32,5,209.751,-0.253234215117451,"yes",0,1,"loved","FP003","003","run2","change","social",1.32,1,"yes","positive"
33,6,214.688,-0.668979253845364,"yes",1,2,"lonely","FP003","003","run2","change","social",0.871,0,"no","negative"
34,5,219.626,-0.130078433158677,"yes",1,3,"neglected","FP003","003","run2","change","social",1.493,0,"no","negative"
35,4,224.61,-0.689861683206188,"yes",0,2,"joyful","FP003","003","run2","change","well-being",0.853,1,"yes","positive"
36,4,229.626,-0.23670491316624,"yes",0,6,"live a meaningful life","FP003","003","run2","change","well-being",1.342,1,"yes","positive"
1,3,5.081,0.0832380215037622,"no",0,3,"overwhelmed","FP004","004","run1","self","ill-being",1.848,0,"no","negative"
2,3,10.064,-0.138148416430068,"no",0,5,"feel unimportant","FP004","004","run1","self","ill-being",1.481,0,"no","negative"
3,2,15.009,-0.562356618807101,"no",1,3,"neglected","FP004","004","run1","self","social",0.969,1,"yes","negative"
4,2,20.178,-0.500336746680907,"yes",0,3,"have good friends","FP004","004","run1","self","social",1.031,1,"yes","positive"
5,1,25.164,-0.807937845055496,"yes",0,2,"cheerful","FP004","004","run1","self","well-being",0.758,1,"yes","positive"
6,1,30.198,-0.672429516037517,"yes",0,3,"like myself","FP004","004","run1","self","well-being",0.868,1,"yes","positive"
7,4,44.863,0.0541390702245119,"no",0,3,"capable","FP004","004","run1","change","well-being",1.795,0,"no","positive"
8,4,49.847,0.187461527374513,"no",0,6,"live a meaningful life","FP004","004","run1","change","well-being",2.051,0,"no","positive"
9,6,55.17,0.0913221399037212,"yes",0,5,"unable to cope","FP004","004","run1","change","ill-being",1.863,1,"yes","negative"
10,6,60.157,0.106768518913956,"yes",0,2,"anxious","FP004","004","run1","change","ill-being",1.892,1,"yes","negative"
11,5,65.11,0.199095201966931,"no",1,5,"alienated","FP004","004","run1","change","social",2.075,1,"yes","negative"
12,6,70.214,-0.0740742164422252,"yes",1,2,"lonely","FP004","004","run1","change","social",1.579,0,"no","negative"
13,3,84.947,-0.383308387358116,"no",0,5,"feel invisible","FP004","004","run1","self","ill-being",1.159,0,"no","negative"
14,3,89.895,-0.422908810210638,"no",0,4,"feel rejected","FP004","004","run1","self","ill-being",1.114,0,"no","negative"
15,1,94.847,-0.561325159200439,"yes",0,5,"satisfied with life","FP004","004","run1","self","well-being",0.97,1,"yes","positive"
16,1,99.83,-0.831971044499652,"yes",0,2,"joyful","FP004","004","run1","self","well-being",0.74,1,"yes","positive"
17,2,104.862,-0.593805751489604,"yes",0,5,"comfortable with friends","FP004","004","run1","self","social",0.939,1,"yes","positive"
18,3,109.959,-0.561325159200439,"no",0,2,"depressed","FP004","004","run1","self","ill-being",0.97,0,"no","negative"
19,6,124.662,-0.227064497384066,"yes",0,2,"nervous","FP004","004","run1","change","ill-being",1.355,1,"yes","negative"
20,4,129.607,-0.444688255474678,"yes",0,4,"optimistic","FP004","004","run1","change","well-being",1.09,1,"yes","positive"
21,5,134.594,0.731847347632806,"yes",0,3,"am cared for","FP004","004","run1","change","social",3.535,1,"yes","positive"
22,5,139.545,-0.200124389803502,"yes",0,2,"well-liked","FP004","004","run1","change","social",1.392,1,"yes","positive"
23,4,144.562,-0.195108256032386,"yes",0,2,"happy","FP004","004","run1","change","well-being",1.399,1,"yes","positive"
24,6,149.504,-0.498398761578229,"yes",0,2,"tired","FP004","004","run1","change","ill-being",1.033,1,"yes","negative"
25,2,164.262,-0.203722810383036,"yes",0,6,"have warm relationships","FP004","004","run1","self","social",1.387,1,"yes","positive"
26,1,169.213,-0.728098121245439,"yes",0,1,"proud","FP004","004","run1","self","well-being",0.821,1,"yes","positive"
27,1,174.155,-0.549029922343401,"yes",0,6,"live a purposeful life","FP004","004","run1","self","well-being",0.982,1,"yes","positive"
28,3,179.095,-0.00141486382657474,"yes",0,1,"stressed","FP004","004","run1","self","ill-being",1.698,1,"yes","negative"
29,2,184.078,-0.504224020769309,"yes",0,4,"feel encouraged","FP004","004","run1","self","social",1.027,1,"yes","positive"
30,2,189.4,-0.48302862230157,"yes",0,2,"trusted","FP004","004","run1","self","social",1.049,1,"yes","positive"
31,5,204.093,-0.028879276616944,"yes",1,4,"isolated","FP004","004","run1","change","social",1.652,0,"no","negative"
32,5,209.196,-0.273127755637021,"yes",0,1,"loved","FP004","004","run1","change","social",1.294,1,"yes","positive"
33,6,214.178,-0.206610899033109,"yes",0,3,"unhappy","FP004","004","run1","change","ill-being",1.383,1,"yes","negative"
34,5,219.122,0.380613223161203,"yes",0,5,"have support systems","FP004","004","run1","change","social",2.488,1,"yes","positive"
35,4,224.076,-0.549029922343401,"yes",0,5,"full of energy","FP004","004","run1","change","well-being",0.982,1,"yes","positive"
36,4,229.411,0.285383425978198,"no",0,3,"achieve goals","FP004","004","run1","change","well-being",2.262,0,"no","positive"
1,3,5.074,-0.20156220457313,"no",0,5,"unable to cope","FP004","004","run2","self","ill-being",1.39,0,"no","negative"
2,3,10.025,-0.350212452022473,"no",0,2,"anxious","FP004","004","run2","self","ill-being",1.198,0,"no","negative"
3,2,15.126,-0.198688639377398,"no",1,5,"alienated","FP004","004","run2","self","social",1.394,1,"yes","negative"
4,2,20.125,-0.610991996195015,"yes",0,3,"am cared for","FP004","004","run2","self","social",0.923,1,"yes","positive"
5,1,25.125,-0.856596091805041,"yes",0,3,"capable","FP004","004","run2","self","well-being",0.722,1,"yes","positive"
6,1,30.092,-0.488764775697095,"yes",0,6,"live a meaningful life","FP004","004","run2","self","well-being",1.043,1,"yes","positive"
7,4,44.761,-0.284787429119025,"yes",0,2,"cheerful","FP004","004","run2","change","well-being",1.279,1,"yes","positive"
8,4,49.71,0.224786434195612,"yes",0,3,"like myself","FP004","004","run2","change","well-being",2.129,1,"yes","positive"
9,6,54.812,0.670302925277471,"yes",0,3,"overwhelmed","FP004","004","run2","change","ill-being",3.324,1,"yes","negative"
10,6,59.762,0.624126670388487,"yes",0,5,"feel unimportant","FP004","004","run2","change","ill-being",3.174,1,"yes","negative"
11,5,65.095,0.243400280129007,"yes",1,3,"neglected","FP004","004","run2","change","social",2.169,0,"no","negative"
12,6,70.095,0.384224059581906,"no",0,5,"feel invisible","FP004","004","run2","change","ill-being",2.497,0,"no","negative"
13,3,84.846,-0.270041333433832,"no",1,2,"lonely","FP004","004","run2","self","social",1.298,1,"yes","negative"
14,3,89.798,-0.239689990009693,"no",0,2,"nervous","FP004","004","run2","self","ill-being",1.338,0,"no","negative"
15,1,94.748,-0.609909159056183,"yes",0,4,"optimistic","FP004","004","run2","self","well-being",0.924,1,"yes","positive"
16,1,99.731,-0.51106332441955,"yes",0,2,"happy","FP004","004","run2","self","well-being",1.02,1,"yes","positive"
17,2,104.682,-0.224852922579226,"yes",0,2,"well-liked","FP004","004","run2","self","social",1.358,1,"yes","positive"
18,3,109.665,-0.242684004222298,"yes",0,2,"tired","FP004","004","run2","self","ill-being",1.334,1,"yes","negative"
19,6,124.333,-0.0343421126605992,"yes",0,4,"feel rejected","FP004","004","run2","change","ill-being",1.643,1,"yes","negative"
20,4,129.283,0.628527809212238,"yes",0,5,"satisfied with life","FP004","004","run2","change","well-being",3.188,1,"yes","positive"
21,5,134.283,0.119895512347777,"yes",0,3,"have good friends","FP004","004","run2","change","social",1.917,1,"yes","positive"
22,5,139.284,0.0635652559050573,"no",0,5,"comfortable with friends","FP004","004","run2","change","social",1.812,0,"no","positive"
23,4,144.601,0.161280728510631,"yes",0,2,"joyful","FP004","004","run2","change","well-being",1.998,1,"yes","positive"
24,6,149.702,0.262126563813931,"yes",0,2,"depressed","FP004","004","run2","change","ill-being",2.21,1,"yes","negative"
25,2,164.452,-0.436465276294246,"no",1,4,"isolated","FP004","004","run2","self","social",1.099,1,"yes","negative"
26,1,169.486,-0.239689990009693,"yes",0,5,"full of energy","FP004","004","run2","self","well-being",1.338,1,"yes","positive"
27,1,174.486,-0.587436303204125,"yes",0,3,"achieve goals","FP004","004","run2","self","well-being",0.945,1,"yes","positive"
28,3,179.503,0.158775089514927,"no",0,3,"unhappy","FP004","004","run2","self","ill-being",1.993,0,"no","negative"
29,2,184.487,-0.657563604761688,"yes",0,1,"loved","FP004","004","run2","self","social",0.881,1,"yes","positive"
30,2,189.587,-0.385035503504191,"yes",0,5,"have support systems","FP004","004","run2","self","social",1.157,1,"yes","positive"
31,5,204.254,0.507642412882674,"yes",0,6,"have warm relationships","FP004","004","run2","change","social",2.825,1,"yes","positive"
32,5,209.255,-0.127402846278239,"yes",0,4,"feel encouraged","FP004","004","run2","change","social",1.497,1,"yes","positive"
33,6,214.288,-0.0126675736203264,"yes",0,1,"stressed","FP004","004","run2","change","ill-being",1.679,1,"yes","negative"
34,5,219.274,0.0241679267145808,"no",0,2,"trusted","FP004","004","run2","change","social",1.742,0,"no","positive"
35,4,224.224,0.320992919999036,"yes",0,1,"proud","FP004","004","run2","change","well-being",2.344,1,"yes","positive"
36,4,229.556,0.823937742312789,"yes",0,6,"live a purposeful life","FP004","004","run2","change","well-being",3.876,1,"yes","positive"
1,3,5.059,0.298995052160037,"yes",0,2,"anxious","FP005","005","run1","self","ill-being",2.293,1,"yes","negative"
2,3,10.042,-0.0428996220958222,"no",0,5,"feel invisible","FP005","005","run1","self","ill-being",1.629,0,"no","negative"
3,2,14.998,-0.288704394565759,"yes",0,5,"comfortable with friends","FP005","005","run1","self","social",1.274,1,"yes","positive"
4,2,19.941,-0.287919773105341,"yes",0,3,"have good friends","FP005","005","run1","self","social",1.275,1,"yes","positive"
5,1,25.263,-0.506173339125359,"yes",0,4,"optimistic","FP005","005","run1","self","well-being",1.025,1,"yes","positive"
6,1,30.213,-0.593805751489604,"yes",0,3,"achieve goals","FP005","005","run1","self","well-being",0.939,1,"yes","positive"
7,4,44.872,0.13798853627517,"yes",0,5,"satisfied with life","FP005","005","run1","change","well-being",1.952,1,"yes","positive"
8,4,49.888,-0.315754572098785,"yes",0,2,"happy","FP005","005","run1","change","well-being",1.24,1,"yes","positive"
9,6,54.903,0.431162671832279,"yes",0,4,"feel rejected","FP005","005","run1","change","ill-being",2.617,1,"yes","negative"
10,6,59.847,-0.116771516909511,"yes",0,5,"unable to cope","FP005","005","run1","change","ill-being",1.513,1,"yes","negative"
11,5,64.83,-0.251720210286236,"yes",1,5,"alienated","FP005","005","run1","change","social",1.322,0,"no","negative"
12,6,69.846,-0.137473424841835,"yes",0,2,"tired","FP005","005","run1","change","ill-being",1.482,1,"yes","negative"
13,3,84.728,-0.166917523810499,"no",0,5,"feel unimportant","FP005","005","run1","self","ill-being",1.439,0,"no","negative"
14,3,89.679,0.348345771917004,"yes",1,2,"lonely","FP005","005","run1","self","social",2.409,0,"no","negative"
15,1,94.662,-0.665540855042332,"yes",0,2,"joyful","FP005","005","run1","self","well-being",0.874,1,"yes","positive"
16,1,99.981,-0.682852308713612,"yes",0,1,"proud","FP005","005","run1","self","well-being",0.859,1,"yes","positive"
17,2,104.929,-0.564422735244573,"yes",0,4,"feel encouraged","FP005","005","run1","self","social",0.967,1,"yes","positive"
18,3,109.945,-0.447444343576658,"yes",0,2,"nervous","FP005","005","run1","self","ill-being",1.087,1,"yes","negative"
19,6,124.645,-0.42921229798923,"yes",0,3,"unhappy","FP005","005","run1","change","ill-being",1.107,1,"yes","negative"
20,4,129.629,0.945954436103531,"no",0,3,"like myself","FP005","005","run1","change","well-being",4.379,0,"no","positive"
21,5,134.578,0.037851150466038,"yes",1,4,"isolated","FP005","005","run1","change","social",1.766,0,"no","negative"
22,5,139.56,0.177662330882517,"yes",0,3,"am cared for","FP005","005","run1","change","social",2.031,1,"yes","positive"
23,4,144.543,0.467189081961064,"yes",0,6,"live a meaningful life","FP005","005","run1","change","well-being",2.713,1,"yes","positive"
24,6,149.526,-0.270041333433832,"yes",0,3,"overwhelmed","FP005","005","run1","change","ill-being",1.298,1,"yes","negative"
25,2,164.226,-0.463207303241915,"yes",0,2,"trusted","FP005","005","run1","self","social",1.07,1,"yes","positive"
26,1,169.174,-0.0951950015505,"yes",0,6,"live a purposeful life","FP005","005","run1","self","well-being",1.546,1,"yes","positive"
27,1,174.124,-0.250208494200914,"yes",0,5,"full of energy","FP005","005","run1","self","well-being",1.324,1,"yes","positive"
28,3,179.223,0.272480021142291,"no",0,1,"stressed","FP005","005","run1","self","ill-being",2.233,0,"no","negative"
29,2,184.544,-0.605589497911667,"no",1,3,"neglected","FP005","005","run1","self","social",0.928,1,"yes","negative"
30,2,189.488,-0.705219338860508,"yes",0,1,"loved","FP005","005","run1","self","social",0.84,1,"yes","positive"
31,5,204.162,0.993014072356723,"yes",0,6,"have warm relationships","FP005","005","run1","change","social",4.59,1,"yes","positive"
32,5,209.336,-0.431926003860827,"yes",0,5,"have support systems","FP005","005","run1","change","social",1.104,1,"yes","positive"
33,6,214.318,-0.0210408282833231,"yes",0,2,"depressed","FP005","005","run1","change","ill-being",1.665,1,"yes","negative"
34,5,219.335,0.239242269980343,"no",0,2,"well-liked","FP005","005","run1","change","social",2.16,0,"no","positive"
35,4,224.277,-0.656429174691076,"yes",0,3,"capable","FP005","005","run1","change","well-being",0.882,1,"yes","positive"
36,4,229.377,0.173715606469878,"no",0,2,"cheerful","FP005","005","run1","change","well-being",2.023,0,"no","positive"
1,3,5.064,0.17173638761497,"no",0,4,"feel rejected","FP005","005","run2","self","ill-being",2.019,0,"no","negative"
2,3,10.011,0.0207176645224282,"no",0,5,"unable to cope","FP005","005","run2","self","ill-being",1.736,0,"no","negative"
3,2,15.344,-0.393716113568497,"no",1,5,"alienated","FP005","005","run2","self","social",1.147,1,"yes","negative"
4,2,20.294,-0.449285964723307,"no",1,4,"isolated","FP005","005","run2","self","social",1.085,1,"yes","negative"
5,1,25.615,NA,NA,0,5,"satisfied with life","FP005","005","run2","self","well-being",NA,NA,NA,"positive"
6,1,30.709,-0.350212452022473,"yes",0,2,"happy","FP005","005","run2","self","well-being",1.198,1,"yes","positive"
7,4,45.407,0.244782450355959,"no",0,4,"optimistic","FP005","005","run2","change","well-being",2.172,0,"no","positive"
8,4,50.391,-0.608827493185442,"yes",0,3,"achieve goals","FP005","005","run2","change","well-being",0.925,1,"yes","positive"
9,6,55.331,0.424645493311706,"yes",0,2,"anxious","FP005","005","run2","change","ill-being",2.6,1,"yes","negative"
10,6,60.272,0.00854712890217302,"yes",0,5,"feel invisible","FP005","005","run2","change","ill-being",1.715,1,"yes","negative"
11,5,65.265,0.700527448186198,"no",0,5,"comfortable with friends","FP005","005","run2","change","social",3.426,0,"no","positive"
12,6,70.281,-0.198688639377398,"yes",0,5,"feel unimportant","FP005","005","run2","change","ill-being",1.394,1,"yes","negative"
13,3,85.014,-0.219711523078807,"yes",0,2,"tired","FP005","005","run2","self","ill-being",1.365,1,"yes","negative"
14,3,90.031,-0.559265426237428,"no",0,3,"unhappy","FP005","005","run2","self","ill-being",0.972,0,"no","negative"
15,1,95.013,-0.0823413541471189,"yes",0,3,"like myself","FP005","005","run2","self","well-being",1.566,1,"yes","positive"
16,1,100.031,-0.0887475259595303,"yes",0,6,"live a meaningful life","FP005","005","run2","self","well-being",1.556,1,"yes","positive"
17,2,105.201,-0.628478780582731,"yes",0,3,"am cared for","FP005","005","run2","self","social",0.907,1,"yes","positive"
18,3,110.297,0.808860773587826,"no",0,3,"overwhelmed","FP005","005","run2","self","ill-being",3.818,0,"no","negative"
19,6,124.997,0.278284904600521,"no",1,2,"lonely","FP005","005","run2","change","social",2.246,1,"yes","negative"
20,4,129.947,-0.309323681768494,"yes",0,2,"joyful","FP005","005","run2","change","well-being",1.248,1,"yes","positive"
21,5,135.114,-0.639565368639071,"yes",0,3,"have good friends","FP005","005","run2","change","social",0.897,1,"yes","positive"
22,5,140.064,-0.584266728442846,"yes",0,4,"feel encouraged","FP005","005","run2","change","social",0.948,1,"yes","positive"
23,4,145.079,-0.853829838312151,"yes",0,1,"proud","FP005","005","run2","change","well-being",0.724,1,"yes","positive"
24,6,150.063,0.22993987731803,"yes",0,2,"nervous","FP005","005","run2","change","ill-being",2.14,1,"yes","negative"
25,2,164.811,0.220550136968191,"yes",0,6,"have warm relationships","FP005","005","run2","self","social",2.12,1,"yes","positive"
26,1,169.761,-0.637338196226247,"yes",0,3,"capable","FP005","005","run2","self","well-being",0.899,1,"yes","positive"
27,1,174.71,-0.708797160208392,"yes",0,2,"cheerful","FP005","005","run2","self","well-being",0.837,1,"yes","positive"
28,3,179.809,-0.646276803227058,"no",0,2,"depressed","FP005","005","run2","self","ill-being",0.891,0,"no","negative"
29,2,184.791,-0.559265426237428,"yes",0,5,"have support systems","FP005","005","run2","self","social",0.972,1,"yes","positive"
30,2,189.742,-0.162756630151335,"yes",0,2,"well-liked","FP005","005","run2","self","social",1.445,1,"yes","positive"
31,5,204.44,-0.637338196226247,"yes",0,2,"trusted","FP005","005","run2","change","social",0.899,1,"yes","positive"
32,5,209.39,0.271135633756297,"no",1,3,"neglected","FP005","005","run2","change","social",2.23,1,"yes","negative"
33,6,214.372,-0.462273160250119,"yes",0,1,"stressed","FP005","005","run2","change","ill-being",1.071,1,"yes","negative"
34,5,219.356,0.886684799054715,"no",0,1,"loved","FP005","005","run2","change","social",4.127,0,"no","positive"
35,4,224.338,-0.513026033587399,"yes",0,6,"live a purposeful life","FP005","005","run2","change","well-being",1.018,1,"yes","positive"
36,4,229.354,0.484726981232287,"no",0,5,"full of energy","FP005","005","run2","change","well-being",2.761,0,"no","positive"
1,3,5.079,0.210595089122766,"no",0,4,"feel rejected","FP006","006","run1","self","ill-being",2.099,0,"no","negative"
2,3,10.029,0.339590243814625,"yes",0,5,"feel unimportant","FP006","006","run1","self","ill-being",2.388,1,"yes","negative"
3,2,15.047,-0.147646452554886,"yes",0,4,"feel encouraged","FP006","006","run1","self","social",1.467,1,"yes","positive"
4,2,20.007,-0.275448839851225,"yes",0,5,"comfortable with friends","FP006","006","run1","self","social",1.291,1,"yes","positive"
5,1,24.959,-0.45205477129144,"yes",0,2,"joyful","FP006","006","run1","self","well-being",1.082,1,"yes","positive"
6,1,30.064,-0.0496751330794302,"yes",0,1,"proud","FP006","006","run1","self","well-being",1.618,1,"yes","positive"
7,4,44.797,-0.420219431628667,"yes",0,2,"happy","FP006","006","run1","change","well-being",1.117,1,"yes","positive"
8,4,49.895,0.262578950159579,"yes",0,6,"live a meaningful life","FP006","006","run1","change","well-being",2.211,1,"yes","positive"
9,6,54.847,0.255316094811404,"yes",0,1,"sad","FP006","006","run1","change","ill-being",2.195,1,"yes","negative"
10,6,59.946,0.100405825126128,"no",0,2,"anxious","FP006","006","run1","change","ill-being",1.88,0,"no","negative"
11,5,64.929,0.264837817169307,"yes",0,6,"have warm relationships","FP006","006","run1","change","social",2.216,1,"yes","positive"
12,6,70.259,0.386624060733907,"no",0,3,"overwhelmed","FP006","006","run1","change","ill-being",2.503,0,"no","negative"
13,3,84.929,0.0479920824420874,"no",0,3,"feel worthless","FP006","006","run1","self","ill-being",1.784,0,"no","negative"
14,3,89.912,-0.321415727533523,"no",1,2,"lonely","FP006","006","run1","self","social",1.233,1,"yes","negative"
15,1,95.244,0.395771072212569,"no",0,3,"positive","FP006","006","run1","self","well-being",2.526,0,"no","positive"
16,1,100.262,-0.0198403479470732,"yes",0,5,"interested in life","FP006","006","run1","self","well-being",1.667,1,"yes","positive"
17,2,105.246,-0.345216604829101,"yes",0,3,"helped by friends","FP006","006","run1","self","social",1.204,1,"yes","positive"
18,3,110.229,0.312854087323589,"yes",0,2,"nervous","FP006","006","run1","self","ill-being",2.325,1,"yes","negative"
19,6,124.896,-0.153800318129264,"yes",0,2,"fearful","FP006","006","run1","change","ill-being",1.458,1,"yes","negative"
20,4,129.918,0.172231559697383,"no",0,2,"hopeful","FP006","006","run1","change","well-being",2.02,0,"no","positive"
21,5,134.861,0.401298129314715,"yes",0,1,"loved","FP006","006","run1","change","social",2.54,1,"yes","positive"
22,5,139.809,0.421949554840797,"yes",0,2,"trusted","FP006","006","run1","change","social",2.593,1,"yes","positive"
23,4,144.795,0.23877919981694,"yes",0,4,"engaged in tasks","FP006","006","run1","change","well-being",2.159,1,"yes","positive"
24,6,149.745,0.178646582930479,"no",0,1,"stressed","FP006","006","run1","change","ill-being",2.033,0,"no","negative"
25,2,164.561,-0.222646228046401,"no",1,4,"isolated","FP006","006","run1","self","social",1.361,1,"yes","negative"
26,1,169.895,0.0718093256801394,"yes",0,3,"achieve goals","FP006","006","run1","self","well-being",1.827,1,"yes","positive"
27,1,174.845,0.00504245241772361,"yes",0,5,"satisfied with life","FP006","006","run1","self","well-being",1.709,1,"yes","positive"
28,3,179.828,0.237852415691289,"no",0,5,"unable to cope","FP006","006","run1","self","ill-being",2.157,0,"no","negative"
29,2,184.812,-0.29184905124523,"yes",0,3,"am cared for","FP006","006","run1","self","social",1.27,1,"yes","positive"
30,2,189.844,-0.441025247715941,"yes",0,3,"have good friends","FP006","006","run1","self","social",1.094,1,"yes","positive"
31,5,204.544,0.258045850828594,"yes",0,6,"belong in social group","FP006","006","run1","change","social",2.201,1,"yes","positive"
32,5,209.577,0.321419450182513,"yes",0,7,"have trusting relationships","FP006","006","run1","change","social",2.345,1,"yes","positive"
33,6,214.528,0.139012601904861,"yes",0,3,"feel useless","FP006","006","run1","change","ill-being",1.954,1,"yes","negative"
34,5,219.699,-0.241934659863517,"no",0,2,"angry","FP006","006","run1","change","ill-being",1.335,0,"no","negative"
35,4,224.87,0.0585859925054499,"yes",0,6,"live a purposeful life","FP006","006","run1","change","well-being",1.803,1,"yes","positive"
36,4,229.857,0.212974343159733,"yes",0,3,"like myself","FP006","006","run1","change","well-being",2.104,1,"yes","positive"
1,3,5.053,-0.0583654422714074,"no",0,1,"sad","FP006","006","run2","self","ill-being",1.604,0,"no","negative"
2,3,10.039,-0.360279651140197,"yes",0,2,"anxious","FP006","006","run2","self","ill-being",1.186,1,"yes","negative"
3,2,14.993,-0.355233383072572,"yes",0,6,"have warm relationships","FP006","006","run2","self","social",1.192,1,"yes","positive"
4,2,20.011,-0.590615956121504,"yes",0,1,"loved","FP006","006","run2","self","social",0.942,1,"yes","positive"
5,1,24.993,-0.0558747809589556,"yes",0,2,"happy","FP006","006","run2","self","well-being",1.608,1,"yes","positive"
6,1,29.988,0.136450468809694,"yes",0,6,"live a meaningful life","FP006","006","run2","self","well-being",1.949,1,"yes","positive"
7,4,44.694,-0.0540108475208929,"yes",0,2,"joyful","FP006","006","run2","change","well-being",1.611,1,"yes","positive"
8,4,49.643,0.0558089843336983,"no",0,1,"proud","FP006","006","run2","change","well-being",1.798,0,"no","positive"
9,6,54.627,0.35041917095961,"yes",0,4,"feel rejected","FP006","006","run2","change","ill-being",2.414,1,"yes","negative"
10,6,59.725,0.176184134013207,"yes",0,5,"feel unimportant","FP006","006","run2","change","ill-being",2.028,1,"yes","negative"
11,5,64.71,0.110461480114419,"no",0,4,"feel encouraged","FP006","006","run2","change","social",1.899,0,"no","positive"
12,6,69.66,0.164778109042802,"yes",0,3,"feel worthless","FP006","006","run2","change","ill-being",2.005,1,"yes","negative"
13,3,84.476,0.184531837779035,"yes",0,3,"overwhelmed","FP006","006","run2","self","ill-being",2.045,1,"yes","negative"
14,3,89.427,0.0602485032790635,"no",0,2,"fearful","FP006","006","run2","self","ill-being",1.806,0,"no","negative"
15,1,94.41,0.235531690583808,"yes",0,2,"hopeful","FP006","006","run2","self","well-being",2.152,1,"yes","positive"
16,1,99.36,0.293747991586521,"yes",0,4,"engaged in tasks","FP006","006","run2","self","well-being",2.281,1,"yes","positive"
17,2,104.457,-0.431926003860827,"yes",0,2,"trusted","FP006","006","run2","self","social",1.104,1,"yes","positive"
18,3,109.411,-0.432832211444365,"yes",0,1,"stressed","FP006","006","run2","self","ill-being",1.103,1,"yes","negative"
19,6,124.455,0.0218690751274701,"yes",1,2,"lonely","FP006","006","run2","change","social",1.738,0,"no","negative"
20,4,129.408,0.232739692492776,"no",0,3,"positive","FP006","006","run2","change","well-being",2.146,0,"no","positive"
21,5,134.428,-0.0577421951337511,"yes",0,5,"comfortable with friends","FP006","006","run2","change","social",1.605,1,"yes","positive"
22,5,139.76,0.159276719823916,"yes",0,3,"helped by friends","FP006","006","run2","change","social",1.994,1,"yes","positive"
23,4,144.859,0.173715606469878,"no",0,5,"interested in life","FP006","006","run2","change","well-being",2.023,0,"no","positive"
24,6,150.19,0.080528726971956,"no",0,2,"nervous","FP006","006","run2","change","ill-being",1.843,0,"no","negative"
25,2,164.926,0.284056285770136,"no",0,6,"belong in social group","FP006","006","run2","self","social",2.259,0,"no","positive"
26,1,169.87,-0.306922720230956,"yes",0,6,"live a purposeful life","FP006","006","run2","self","well-being",1.251,1,"yes","positive"
27,1,174.857,0.0832380215037622,"no",0,3,"like myself","FP006","006","run2","self","well-being",1.848,0,"no","positive"
28,3,179.809,0.0207176645224282,"no",0,3,"feel useless","FP006","006","run2","self","ill-being",1.736,0,"no","negative"
29,2,184.759,-0.239689990009693,"yes",0,7,"have trusting relationships","FP006","006","run2","self","social",1.338,1,"yes","positive"
30,2,189.702,-0.232243939225615,"no",0,2,"angry","FP006","006","run2","self","ill-being",1.348,0,"no","negative"
31,5,204.592,0.0712618304570465,"yes",1,4,"isolated","FP006","006","run2","change","social",1.826,0,"no","negative"
32,5,209.766,0.31928497765388,"no",0,3,"am cared for","FP006","006","run2","change","social",2.34,0,"no","positive"
33,6,214.709,0.111514111790562,"yes",0,5,"unable to cope","FP006","006","run2","change","ill-being",1.901,1,"yes","negative"
34,5,219.69,-0.0264608957526623,"no",0,3,"have good friends","FP006","006","run2","change","social",1.656,0,"no","positive"
35,4,224.674,0.120938265309833,"no",0,3,"achieve goals","FP006","006","run2","change","well-being",1.919,0,"no","positive"
36,4,229.658,0.337913797487373,"yes",0,5,"satisfied with life","FP006","006","run2","change","well-being",2.384,1,"yes","positive"
1,3,5.061,0.180612185528938,"no",1,2,"lonely","FP007","007","run1","self","social",2.037,1,"yes","negative"
2,3,10.231,0.017833324478342,"no",0,3,"feel worthless","FP007","007","run1","self","ill-being",1.731,0,"no","negative"
3,2,15.174,0.345852005038602,"yes",0,2,"trusted","FP007","007","run1","self","social",2.403,1,"yes","positive"
4,2,20.124,0.386224460328989,"yes",0,7,"have trusting relationships","FP007","007","run1","self","social",2.502,1,"yes","positive"
5,1,25.108,0.037851150466038,"no",0,2,"joyful","FP007","007","run1","self","well-being",1.766,0,"no","positive"
6,1,30.441,-0.183029956444202,"yes",0,5,"interested in life","FP007","007","run1","self","well-being",1.416,1,"yes","positive"
7,4,45.257,0.205340718304662,"yes",0,5,"satisfied with life","FP007","007","run1","change","well-being",2.088,1,"yes","positive"
8,4,50.358,-0.0192406477791753,"yes",0,3,"like myself","FP007","007","run1","change","well-being",1.668,1,"yes","positive"
9,6,55.297,0.275609914151218,"yes",0,2,"fearful","FP007","007","run1","change","ill-being",2.24,1,"yes","negative"
10,6,60.241,0.231807291492825,"yes",0,3,"overwhelmed","FP007","007","run1","change","ill-being",2.144,1,"yes","negative"
11,5,65.188,0.608888280283555,"yes",0,6,"have warm relationships","FP007","007","run1","change","social",3.126,1,"yes","positive"
12,6,70.14,0.200058593178245,"yes",0,5,"feel unimportant","FP007","007","run1","change","ill-being",2.077,1,"yes","negative"
13,3,84.79,-0.0990835352901924,"yes",0,2,"anxious","FP007","007","run1","self","ill-being",1.54,1,"yes","negative"
14,3,89.738,-0.303730379131983,"no",0,3,"feel useless","FP007","007","run1","self","ill-being",1.255,0,"no","negative"
15,1,94.756,0.680181766282168,"no",0,1,"proud","FP007","007","run1","self","well-being",3.357,0,"no","positive"
16,1,99.845,-0.0428996220958222,"yes",0,2,"happy","FP007","007","run1","self","well-being",1.629,1,"yes","positive"
17,2,104.79,-0.0435136841353818,"yes",0,3,"am cared for","FP007","007","run1","self","social",1.628,1,"yes","positive"
18,3,109.77,0.701985812160582,"yes",0,2,"nervous","FP007","007","run1","self","ill-being",3.431,1,"yes","negative"
19,6,124.506,0.350833335388806,"yes",0,1,"stressed","FP007","007","run1","change","ill-being",2.415,1,"yes","negative"
20,4,129.523,-0.123402840944893,"yes",0,2,"hopeful","FP007","007","run1","change","well-being",1.503,1,"yes","positive"
21,5,134.504,0.147167591034167,"yes",0,2,"angry","FP007","007","run1","change","ill-being",1.97,1,"yes","negative"
22,5,139.823,0.378198735066685,"yes",0,1,"loved","FP007","007","run1","change","social",2.482,1,"yes","positive"
23,4,144.806,0.605684176292772,"yes",0,4,"engaged in tasks","FP007","007","run1","change","well-being",3.116,1,"yes","positive"
24,6,150.131,0.398933130183217,"no",0,4,"feel rejected","FP007","007","run1","change","ill-being",2.534,0,"no","negative"
25,2,165.022,0.0810711734186719,"yes",0,5,"comfortable with friends","FP007","007","run1","self","social",1.844,1,"yes","positive"
26,1,170.122,-0.150376829677743,"yes",0,3,"positive","FP007","007","run1","self","well-being",1.463,1,"yes","positive"
27,1,175.099,0.219606295463484,"yes",0,6,"live a meaningful life","FP007","007","run1","self","well-being",2.118,1,"yes","positive"
28,3,180.086,0.0224442836564158,"no",0,5,"unable to cope","FP007","007","run1","self","ill-being",1.739,0,"no","negative"
29,2,185.072,0.265739937212445,"no",0,6,"belong in social group","FP007","007","run1","self","social",2.218,0,"no","positive"
30,2,190.057,-0.423806879422322,"yes",0,3,"have good friends","FP007","007","run1","self","social",1.113,1,"yes","positive"
31,5,204.721,-0.0906774075491803,"yes",1,4,"isolated","FP007","007","run1","change","social",1.553,0,"no","negative"
32,5,209.738,0.249834125852077,"yes",0,4,"feel encouraged","FP007","007","run1","change","social",2.183,1,"yes","positive"
33,6,214.756,0.0993414290703408,"yes",0,1,"sad","FP007","007","run1","change","ill-being",1.878,1,"yes","negative"
34,5,219.731,0.295937613656889,"no",0,3,"helped by friends","FP007","007","run1","change","social",2.286,0,"no","positive"
35,4,224.671,0.198613158091605,"yes",0,3,"achieve goals","FP007","007","run1","change","well-being",2.074,1,"yes","positive"
36,4,229.689,-0.30213802210762,"yes",0,6,"live a purposeful life","FP007","007","run1","change","well-being",1.257,1,"yes","positive"
1,3,5.047,-0.0186413070360322,"no",0,2,"fearful","FP007","007","run2","self","ill-being",1.669,0,"no","negative"
2,3,9.994,-0.22191174398841,"no",0,3,"overwhelmed","FP007","007","run2","self","ill-being",1.362,0,"no","negative"
3,2,15.17,-0.245687009482068,"yes",0,6,"have warm relationships","FP007","007","run2","self","social",1.33,1,"yes","positive"
4,2,20.191,-0.318176858305379,"no",0,2,"angry","FP007","007","run2","self","ill-being",1.237,0,"no","negative"
5,1,25.145,0.291553564548354,"no",0,5,"satisfied with life","FP007","007","run2","self","well-being",2.276,0,"no","positive"
6,1,30.127,-0.509104459934218,"yes",0,3,"like myself","FP007","007","run2","self","well-being",1.022,1,"yes","positive"
7,4,44.793,-0.0945483801248012,"yes",0,2,"joyful","FP007","007","run2","change","well-being",1.547,1,"yes","positive"
8,4,49.744,-0.27467454635532,"yes",0,5,"interested in life","FP007","007","run2","change","well-being",1.292,1,"yes","positive"
9,6,54.682,0.0401135948700075,"yes",1,2,"lonely","FP007","007","run2","change","social",1.77,0,"no","negative"
10,6,59.626,0.476361775150527,"yes",0,3,"feel worthless","FP007","007","run2","change","ill-being",2.738,1,"yes","negative"
11,5,64.573,0.636961405973852,"yes",0,2,"trusted","FP007","007","run2","change","social",3.215,1,"yes","positive"
12,6,69.526,-0.224852922579226,"yes",0,2,"anxious","FP007","007","run2","change","ill-being",1.358,1,"yes","negative"
13,3,84.176,-0.232243939225615,"no",0,5,"feel unimportant","FP007","007","run2","self","ill-being",1.348,0,"no","negative"
14,3,89.157,0.169753243682916,"no",0,1,"stressed","FP007","007","run2","self","ill-being",2.015,0,"no","negative"
15,1,94.176,-0.262366698680723,"yes",0,2,"hopeful","FP007","007","run2","self","well-being",1.308,1,"yes","positive"
16,1,99.16,0.305948578656628,"yes",0,4,"engaged in tasks","FP007","007","run2","self","well-being",2.309,1,"yes","positive"
17,2,104.176,-0.584266728442846,"yes",0,1,"loved","FP007","007","run2","self","social",0.948,1,"yes","positive"
18,3,109.121,0.195232328983901,"no",0,4,"feel rejected","FP007","007","run2","self","ill-being",2.067,0,"no","negative"
19,6,124.159,0.429633034822745,"yes",0,3,"feel useless","FP007","007","run2","change","ill-being",2.613,1,"yes","negative"
20,4,129.253,0.492663530828023,"yes",0,1,"proud","FP007","007","run2","change","well-being",2.783,1,"yes","positive"
21,5,134.576,0.0367180058688693,"yes",0,7,"have trusting relationships","FP007","007","run2","change","social",1.764,1,"yes","positive"
22,5,139.525,0.0338795140396908,"no",0,3,"am cared for","FP007","007","run2","change","social",1.759,0,"no","positive"
23,4,144.693,-0.229280974094958,"yes",0,2,"happy","FP007","007","run2","change","well-being",1.352,1,"yes","positive"
24,6,149.783,-0.249453492277545,"yes",0,2,"nervous","FP007","007","run2","change","ill-being",1.325,1,"yes","negative"
25,2,164.476,0.54071766456446,"yes",1,4,"isolated","FP007","007","run2","self","social",2.92,0,"no","negative"
26,1,169.458,-0.380723293286011,"yes",0,3,"achieve goals","FP007","007","run2","self","well-being",1.162,1,"yes","positive"
27,1,174.551,0.200058593178245,"yes",0,6,"live a purposeful life","FP007","007","run2","self","well-being",2.077,1,"yes","positive"
28,3,179.539,-0.554134578655085,"no",0,1,"sad","FP007","007","run2","self","ill-being",0.977,0,"no","negative"
29,2,184.525,0.208687601658371,"yes",0,4,"feel encouraged","FP007","007","run2","self","social",2.095,1,"yes","positive"
30,2,189.475,-0.31494844549326,"yes",0,3,"helped by friends","FP007","007","run2","self","social",1.241,1,"yes","positive"
31,5,204.207,0.779896346791724,"yes",0,5,"comfortable with friends","FP007","007","run2","change","social",3.709,1,"yes","positive"
32,5,209.192,0.315860316772516,"yes",0,6,"belong in social group","FP007","007","run2","change","social",2.332,1,"yes","positive"
33,6,214.142,0.405227407454605,"yes",0,5,"unable to cope","FP007","007","run2","change","ill-being",2.55,1,"yes","negative"
34,5,219.467,-0.127402846278239,"yes",0,3,"have good friends","FP007","007","run2","change","social",1.497,1,"yes","positive"
35,4,224.488,0.132337352471143,"no",0,3,"positive","FP007","007","run2","change","well-being",1.941,0,"no","positive"
36,4,229.508,-0.302933883669723,"yes",0,6,"live a meaningful life","FP007","007","run2","change","well-being",1.256,1,"yes","positive"
1,3,5.064,0.100937598603163,"yes",0,3,"overwhelmed","FP008","008","run1","self","ill-being",1.881,1,"yes","negative"
2,3,10.383,-0.0349509406854938,"no",0,3,"feel useless","FP008","008","run1","self","ill-being",1.642,0,"no","negative"
3,2,15.37,0.104122314670683,"yes",0,3,"helped by friends","FP008","008","run1","self","social",1.887,1,"yes","positive"
4,2,20.388,-0.298960894732948,"yes",0,1,"loved","FP008","008","run1","self","social",1.261,1,"yes","positive"
5,1,25.371,-0.470712028895983,"yes",0,3,"positive","FP008","008","run1","self","well-being",1.062,1,"yes","positive"
6,1,30.547,0.014940640945506,"yes",0,4,"engaged in tasks","FP008","008","run1","self","well-being",1.726,1,"yes","positive"
7,4,45.288,-0.0453581359340294,"yes",0,1,"proud","FP008","008","run1","change","well-being",1.625,1,"yes","positive"
8,4,50.228,-0.699284603340694,"yes",0,2,"hopeful","FP008","008","run1","change","well-being",0.845,1,"yes","positive"
9,6,55.248,0.504806537178505,"yes",0,4,"feel rejected","FP008","008","run1","change","ill-being",2.817,1,"yes","negative"
10,6,60.236,0.245242749558562,"yes",0,1,"sad","FP008","008","run1","change","ill-being",2.173,1,"yes","negative"
11,5,65.188,0.5090573406037,"no",0,6,"have warm relationships","FP008","008","run1","change","social",2.829,0,"no","positive"
12,6,70.17,0.370514167422671,"yes",0,2,"nervous","FP008","008","run1","change","ill-being",2.463,1,"yes","negative"
13,3,84.837,-0.18585881264468,"no",0,3,"feel worthless","FP008","008","run1","self","ill-being",1.412,0,"no","negative"
14,3,89.856,-0.19367968436086,"no",0,5,"unable to cope","FP008","008","run1","self","ill-being",1.401,0,"no","negative"
15,1,94.836,-0.471654092083884,"yes",0,2,"joyful","FP008","008","run1","self","well-being",1.061,1,"yes","positive"
16,1,99.78,-0.225589570862998,"yes",0,6,"live a meaningful life","FP008","008","run1","self","well-being",1.357,1,"yes","positive"
17,2,104.801,-0.0509119916168266,"yes",1,4,"isolated","FP008","008","run1","self","social",1.616,0,"no","negative"
18,3,109.819,-0.455758479228925,"yes",0,1,"stressed","FP008","008","run1","self","ill-being",1.078,1,"yes","negative"
19,6,124.469,-0.256269118812605,"yes",0,2,"anxious","FP008","008","run1","change","ill-being",1.316,1,"yes","negative"
20,4,129.418,0.551278144245072,"yes",0,3,"achieve goals","FP008","008","run1","change","well-being",2.951,1,"yes","positive"
21,5,134.369,0.387023501522122,"yes",0,6,"belong in social group","FP008","008","run1","change","social",2.504,1,"yes","positive"
22,5,139.309,0.32269795025012,"yes",0,4,"feel encouraged","FP008","008","run1","change","social",2.348,1,"yes","positive"
23,4,144.253,0.0854001845082575,"no",0,5,"interested in life","FP008","008","run1","change","well-being",1.852,0,"no","positive"
24,6,149.199,0.0929311507094219,"yes",0,2,"fearful","FP008","008","run1","change","ill-being",1.866,1,"yes","negative"
25,2,163.902,0.0541390702245119,"yes",0,5,"comfortable with friends","FP008","008","run1","self","social",1.795,1,"yes","positive"
26,1,168.846,-0.275448839851225,"yes",0,6,"live a purposeful life","FP008","008","run1","self","well-being",1.291,1,"yes","positive"
27,1,173.935,-0.561325159200439,"yes",0,2,"happy","FP008","008","run1","self","well-being",0.97,1,"yes","positive"
28,3,179.036,0.5090573406037,"no",1,2,"lonely","FP008","008","run1","self","social",2.829,1,"yes","negative"
29,2,184.018,0.469398213934603,"yes",0,3,"have good friends","FP008","008","run1","self","social",2.719,1,"yes","positive"
30,2,189.035,-0.391104009340572,"yes",0,2,"trusted","FP008","008","run1","self","social",1.15,1,"yes","positive"
31,5,203.735,0.0799859861173849,"no",0,3,"am cared for","FP008","008","run1","change","social",1.842,0,"no","positive"
32,5,208.825,-0.155173001941236,"yes",0,2,"angry","FP008","008","run1","change","ill-being",1.456,1,"yes","negative"
33,6,213.769,0.387023501522122,"yes",0,5,"feel unimportant","FP008","008","run1","change","ill-being",2.504,1,"yes","negative"
34,5,218.95,0.566078279851682,"yes",0,7,"have trusting relationships","FP008","008","run1","change","social",2.995,1,"yes","positive"
35,4,224.268,0.059694640069114,"yes",0,3,"like myself","FP008","008","run1","change","well-being",1.805,1,"yes","positive"
36,4,229.251,-0.0721760823702681,"yes",0,5,"satisfied with life","FP008","008","run1","change","well-being",1.582,1,"yes","positive"
1,3,5.06,0.27605624310306,"yes",0,4,"feel rejected","FP008","008","run2","self","ill-being",2.241,1,"yes","negative"
2,3,10.009,0.258954116104476,"no",0,1,"sad","FP008","008","run2","self","ill-being",2.203,0,"no","negative"
3,2,15.042,0.338752371959994,"yes",0,6,"have warm relationships","FP008","008","run2","self","social",2.386,1,"yes","positive"
4,2,20.366,0.0826967495013726,"no",0,6,"belong in social group","FP008","008","run2","self","social",1.847,0,"no","positive"
5,1,25.341,-0.548012110550701,"yes",0,1,"proud","FP008","008","run2","self","well-being",0.983,1,"yes","positive"
6,1,30.29,0.101469089447458,"yes",0,2,"hopeful","FP008","008","run2","self","well-being",1.882,1,"yes","positive"
7,4,45.167,0.433071433625778,"no",0,3,"positive","FP008","008","run2","change","well-being",2.622,0,"no","positive"
8,4,50.108,0.54071766456446,"yes",0,4,"engaged in tasks","FP008","008","run2","change","well-being",2.92,1,"yes","positive"
9,6,55.442,-0.0300906638032411,"yes",0,3,"overwhelmed","FP008","008","run2","change","ill-being",1.65,1,"yes","negative"
10,6,60.425,0.325674775752651,"yes",0,3,"feel useless","FP008","008","run2","change","ill-being",2.355,1,"yes","negative"
11,5,65.515,0.409922251758812,"no",0,3,"helped by friends","FP008","008","run2","change","social",2.562,0,"no","positive"
12,6,70.458,0.908495130340852,"yes",0,3,"feel worthless","FP008","008","run2","change","ill-being",4.218,1,"yes","negative"
13,3,85.125,-0.171793883177276,"yes",0,2,"nervous","FP008","008","run2","self","ill-being",1.432,1,"yes","negative"
14,3,90.141,-0.953985995062615,"yes",0,2,"anxious","FP008","008","run2","self","ill-being",0.655,1,"yes","negative"
15,1,95.47,0.227132201163831,"yes",0,3,"achieve goals","FP008","008","run2","self","well-being",2.134,1,"yes","positive"
16,1,100.424,-0.584266728442846,"yes",0,5,"interested in life","FP008","008","run2","self","well-being",0.948,1,"yes","positive"
17,2,105.525,1.00384841452243,"yes",0,4,"feel encouraged","FP008","008","run2","self","social",4.64,1,"yes","positive"
18,3,110.608,0.156766048156105,"no",0,2,"fearful","FP008","008","run2","self","ill-being",1.989,0,"no","negative"
19,6,125.308,0.683750012708686,"yes",0,5,"unable to cope","FP008","008","run2","change","ill-being",3.369,1,"yes","negative"
20,4,130.324,0.268441424672606,"no",0,2,"joyful","FP008","008","run2","change","well-being",2.224,0,"no","positive"
21,5,135.307,0.0619082546974278,"no",0,1,"loved","FP008","008","run2","change","social",1.809,0,"no","positive"
22,5,140.286,0.129241374766015,"yes",1,4,"isolated","FP008","008","run2","change","social",1.935,0,"no","negative"
23,4,145.306,0.28361351401174,"yes",0,6,"live a meaningful life","FP008","008","run2","change","well-being",2.258,1,"yes","positive"
24,6,150.258,-0.740353176582454,"yes",0,1,"stressed","FP008","008","run2","change","ill-being",0.811,1,"yes","negative"
25,2,164.921,0.470868261975892,"yes",0,3,"am cared for","FP008","008","run2","self","social",2.723,1,"yes","positive"
26,1,169.874,0.541744534413379,"no",0,3,"like myself","FP008","008","run2","self","well-being",2.923,0,"no","positive"
27,1,174.856,-0.372154260560909,"yes",0,5,"satisfied with life","FP008","008","run2","self","well-being",1.172,1,"yes","positive"
28,3,179.873,0.148182304464713,"yes",0,5,"feel unimportant","FP008","008","run2","self","ill-being",1.972,1,"yes","negative"
29,2,184.852,-0.395461314709527,"yes",0,2,"angry","FP008","008","run2","self","ill-being",1.145,1,"yes","negative"
30,2,189.838,0.246162712824917,"yes",0,7,"have trusting relationships","FP008","008","run2","self","social",2.175,1,"yes","positive"
31,5,204.573,0.330757378816117,"yes",0,5,"comfortable with friends","FP008","008","run2","change","social",2.367,1,"yes","positive"
32,5,209.552,-0.372154260560909,"yes",0,3,"have good friends","FP008","008","run2","change","social",1.172,1,"yes","positive"
33,6,214.506,-0.0900336997702745,"yes",1,2,"lonely","FP008","008","run2","change","social",1.554,0,"no","negative"
34,5,219.676,-0.705219338860508,"yes",0,2,"trusted","FP008","008","run2","change","social",0.84,1,"yes","positive"
35,4,224.623,0.703733046151967,"yes",0,6,"live a purposeful life","FP008","008","run2","change","well-being",3.437,1,"yes","positive"
36,4,229.599,-0.699284603340694,"yes",0,2,"happy","FP008","008","run2","change","well-being",0.845,1,"yes","positive"
1,3,5.043,0.403657548419484,"no",0,3,"feel useless","FP009","009","run1","self","ill-being",2.546,0,"no","negative"
2,3,9.984,0.356613698304305,"yes",0,5,"unable to cope","FP009","009","run1","self","ill-being",2.429,1,"yes","negative"
3,2,15.001,-0.146965021523406,"yes",0,3,"have good friends","FP009","009","run1","self","social",1.468,1,"yes","positive"
4,2,20.321,0.273822603577123,"no",1,4,"isolated","FP009","009","run1","self","social",2.236,1,"yes","negative"
5,1,25.268,0.0574761144780888,"yes",0,2,"joyful","FP009","009","run1","self","well-being",1.801,1,"yes","positive"
6,1,30.362,-0.346047514723188,"no",0,3,"positive","FP009","009","run1","self","well-being",1.203,0,"no","positive"
7,4,45.018,0.19184003108576,"yes",0,5,"satisfied with life","FP009","009","run1","change","well-being",2.06,1,"yes","positive"
8,4,50,-0.231502374490111,"yes",0,3,"achieve goals","FP009","009","run1","change","well-being",1.349,1,"yes","positive"
9,6,55.017,0.135937253504613,"yes",0,3,"feel worthless","FP009","009","run1","change","ill-being",1.948,1,"yes","negative"
10,6,59.966,0.189409896232468,"no",0,2,"anxious","FP009","009","run1","change","ill-being",2.055,0,"no","negative"
11,5,64.918,-0.161373504066383,"yes",0,6,"belong in social group","FP009","009","run1","change","social",1.447,1,"yes","positive"
12,6,69.934,-0.0222427515049396,"yes",0,3,"overwhelmed","FP009","009","run1","change","ill-being",1.663,1,"yes","negative"
13,3,84.634,-0.221177799001335,"yes",1,2,"lonely","FP009","009","run1","self","social",1.363,0,"no","negative"
14,3,89.617,-0.0192406477791753,"no",0,5,"feel unimportant","FP009","009","run1","self","ill-being",1.668,0,"no","negative"
15,1,94.558,0.0524663628370085,"no",0,3,"like myself","FP009","009","run1","self","well-being",1.792,0,"no","positive"
16,1,99.729,-0.250208494200914,"yes",0,6,"live a meaningful life","FP009","009","run1","self","well-being",1.324,1,"yes","positive"
17,2,104.748,-0.176694137995116,"yes",0,2,"trusted","FP009","009","run1","self","social",1.425,1,"yes","positive"
18,3,110.067,0.229472478384538,"no",0,2,"fearful","FP009","009","run1","self","ill-being",2.139,0,"no","negative"
19,6,124.764,0.239705125809019,"yes",0,4,"feel rejected","FP009","009","run1","change","ill-being",2.161,1,"yes","negative"
20,4,129.783,-0.156547572604403,"yes",0,4,"engaged in tasks","FP009","009","run1","change","well-being",1.454,1,"yes","positive"
21,5,134.766,-0.284787429119025,"yes",0,2,"angry","FP009","009","run1","change","ill-being",1.279,1,"yes","negative"
22,5,140.091,0.0218690751274701,"yes",0,4,"feel encouraged","FP009","009","run1","change","social",1.738,1,"yes","positive"
23,4,145.032,-0.196538871440905,"yes",0,2,"happy","FP009","009","run1","change","well-being",1.397,1,"yes","positive"
24,6,150.131,-0.0951950015505,"yes",0,2,"nervous","FP009","009","run1","change","ill-being",1.546,1,"yes","negative"
25,2,165.025,0.237388701331021,"yes",0,6,"have warm relationships","FP009","009","run1","self","social",2.156,1,"yes","positive"
26,1,170.012,-0.116771516909511,"yes",0,6,"live a purposeful life","FP009","009","run1","self","well-being",1.513,1,"yes","positive"
27,1,175.032,-0.255509528954586,"yes",0,2,"hopeful","FP009","009","run1","self","well-being",1.317,1,"yes","positive"
28,3,180.016,-0.357753334007085,"yes",0,1,"stressed","FP009","009","run1","self","ill-being",1.189,1,"yes","negative"
29,2,184.998,-0.0919660675213285,"yes",0,7,"have trusting relationships","FP009","009","run1","self","social",1.551,1,"yes","positive"
30,2,189.943,-0.540916287569232,"yes",0,1,"loved","FP009","009","run1","self","social",0.99,1,"yes","positive"
31,5,204.649,0.226194554587868,"yes",0,3,"helped by friends","FP009","009","run1","change","social",2.132,1,"yes","positive"
32,5,209.674,0.584603454018802,"yes",0,5,"comfortable with friends","FP009","009","run1","change","social",3.051,1,"yes","positive"
33,6,214.765,-0.10168431699025,"yes",0,1,"sad","FP009","009","run1","change","ill-being",1.536,1,"yes","negative"
34,5,219.748,0.174703748842772,"no",0,3,"am cared for","FP009","009","run1","change","social",2.025,0,"no","positive"
35,4,224.698,0.280508610208865,"yes",0,1,"proud","FP009","009","run1","change","well-being",2.251,1,"yes","positive"
36,4,229.639,0.306381572817972,"no",0,5,"interested in life","FP009","009","run1","change","well-being",2.31,0,"no","positive"
1,3,5.054,0.113090984653443,"no",0,3,"feel worthless","FP009","009","run2","self","ill-being",1.904,0,"no","negative"
2,3,10.007,-0.641797512423012,"yes",0,2,"anxious","FP009","009","run2","self","ill-being",0.895,1,"yes","negative"
3,2,14.994,-0.00023770065355988,"no",0,6,"belong in social group","FP009","009","run2","self","social",1.7,0,"no","positive"
4,2,19.945,-0.471654092083884,"no",0,2,"angry","FP009","009","run2","self","ill-being",1.061,0,"no","negative"
5,1,24.883,-0.0540108475208929,"yes",0,5,"satisfied with life","FP009","009","run2","self","well-being",1.611,1,"yes","positive"
6,1,29.86,-0.594871281691643,"yes",0,3,"achieve goals","FP009","009","run2","self","well-being",0.938,1,"yes","positive"
7,4,44.678,0.142078521526696,"yes",0,2,"joyful","FP009","009","run2","change","well-being",1.96,1,"yes","positive"
8,4,49.694,-0.382445946597457,"yes",0,3,"positive","FP009","009","run2","change","well-being",1.16,1,"yes","positive"
9,6,54.789,0.00269915901974993,"yes",0,3,"feel useless","FP009","009","run2","change","ill-being",1.705,1,"yes","negative"
10,6,59.776,0.234136665944643,"yes",0,5,"unable to cope","FP009","009","run2","change","ill-being",2.149,1,"yes","negative"
11,5,64.793,-0.337769321753817,"yes",0,3,"have good friends","FP009","009","run2","change","social",1.213,1,"yes","positive"
12,6,69.883,0.102000297959285,"yes",1,2,"lonely","FP009","009","run2","change","social",1.883,0,"no","negative"
13,3,84.544,-0.0085070921360666,"yes",0,3,"overwhelmed","FP009","009","run2","self","ill-being",1.686,1,"yes","negative"
14,3,89.527,-0.0564968649603547,"no",0,4,"feel rejected","FP009","009","run2","self","ill-being",1.607,0,"no","negative"
15,1,94.468,-0.175992629723626,"yes",0,4,"engaged in tasks","FP009","009","run2","self","well-being",1.426,1,"yes","positive"
16,1,99.638,0.0207176645224282,"yes",0,2,"happy","FP009","009","run2","self","well-being",1.736,1,"yes","positive"
17,2,104.624,0.249375935695149,"yes",0,4,"feel encouraged","FP009","009","run2","self","social",2.182,1,"yes","positive"
18,3,109.61,-0.609909159056183,"yes",0,2,"nervous","FP009","009","run2","self","ill-being",0.924,1,"yes","negative"
19,6,124.272,-0.0521503818679732,"yes",0,5,"feel unimportant","FP009","009","run2","change","ill-being",1.614,1,"yes","negative"
20,4,129.292,0.409922251758812,"yes",0,3,"like myself","FP009","009","run2","change","well-being",2.562,1,"yes","positive"
21,5,134.243,0.131306424544784,"yes",1,4,"isolated","FP009","009","run2","change","social",1.939,0,"no","negative"
22,5,139.226,0.603113480789671,"no",0,2,"trusted","FP009","009","run2","change","social",3.108,0,"no","positive"
23,4,144.17,0.27739403594472,"yes",0,6,"live a meaningful life","FP009","009","run2","change","well-being",2.244,1,"yes","positive"
24,6,149.156,-0.210232779124264,"yes",0,2,"fearful","FP009","009","run2","change","ill-being",1.378,1,"yes","negative"
25,2,163.809,-0.364504414500505,"yes",0,3,"helped by friends","FP009","009","run2","self","social",1.181,1,"yes","positive"
26,1,169.138,-0.152429515995485,"yes",0,1,"proud","FP009","009","run2","self","well-being",1.46,1,"yes","positive"
27,1,174.125,-0.228541602527079,"yes",0,5,"interested in life","FP009","009","run2","self","well-being",1.353,1,"yes","positive"
28,3,179.076,0.449713270040787,"no",0,1,"sad","FP009","009","run2","self","ill-being",2.666,0,"no","negative"
29,2,184.064,0.411482314477714,"yes",0,5,"comfortable with friends","FP009","009","run2","self","social",2.566,1,"yes","positive"
30,2,189.085,-0.431020616746014,"yes",0,3,"am cared for","FP009","009","run2","self","social",1.105,1,"yes","positive"
31,5,203.892,-0.148328348251271,"yes",0,6,"have warm relationships","FP009","009","run2","change","social",1.466,1,"yes","positive"
32,5,209.216,-0.670128019049238,"yes",0,7,"have trusting relationships","FP009","009","run2","change","social",0.87,1,"yes","positive"
33,6,214.237,0.286708807219267,"yes",0,1,"stressed","FP009","009","run2","change","ill-being",2.265,1,"yes","negative"
34,5,219.191,0.208687601658371,"no",0,1,"loved","FP009","009","run2","change","social",2.095,0,"no","positive"
35,4,224.358,-0.588495064552367,"yes",0,6,"live a purposeful life","FP009","009","run2","change","well-being",0.944,1,"yes","positive"
36,4,229.342,-0.138823863939707,"yes",0,2,"hopeful","FP009","009","run2","change","well-being",1.48,1,"yes","positive"
1,3,5.067,0.630094962016915,"no",1,2,"lonely","FP010","010","run1","self","social",3.193,1,"yes","negative"
2,3,10.02,0.681075022259383,"no",0,3,"feel worthless","FP010","010","run1","self","ill-being",3.36,0,"no","negative"
3,2,15.037,0.249834125852077,"yes",0,2,"angry","FP010","010","run1","self","ill-being",2.183,1,"yes","negative"
4,2,20.359,-0.0734411046768548,"yes",0,3,"helped by friends","FP010","010","run1","self","social",1.58,1,"yes","positive"
5,1,25.336,0.0137812205257711,"yes",0,2,"happy","FP010","010","run1","self","well-being",1.724,1,"yes","positive"
6,1,30.368,0.0940023880909207,"yes",0,6,"live a purposeful life","FP010","010","run1","self","well-being",1.868,1,"yes","positive"
7,4,45.403,0.0918587645476693,"yes",0,3,"achieve goals","FP010","010","run1","change","well-being",1.864,1,"yes","positive"
8,4,50.498,0.251207438038617,"yes",0,2,"hopeful","FP010","010","run1","change","well-being",2.186,1,"yes","positive"
9,6,55.485,0.108352886818659,"yes",0,2,"anxious","FP010","010","run1","change","ill-being",1.895,1,"yes","negative"
10,6,60.82,-0.0810650297875141,"yes",0,3,"overwhelmed","FP010","010","run1","change","ill-being",1.568,1,"yes","negative"
11,5,65.803,-0.127402846278239,"yes",0,2,"trusted","FP010","010","run1","change","social",1.497,1,"yes","positive"
12,6,70.969,0.167766159074785,"no",0,5,"unable to cope","FP010","010","run1","change","ill-being",2.011,0,"no","negative"
13,3,85.636,-0.224116816546724,"yes",0,2,"nervous","FP010","010","run1","self","ill-being",1.359,1,"yes","negative"
14,3,90.619,-0.0453581359340294,"no",0,3,"feel useless","FP010","010","run1","self","ill-being",1.625,0,"no","negative"
15,1,95.635,0.217242786918189,"yes",0,5,"satisfied with life","FP010","010","run1","self","well-being",2.113,1,"yes","positive"
16,1,100.65,0.446708008575323,"yes",0,3,"like myself","FP010","010","run1","self","well-being",2.658,1,"yes","positive"
17,2,105.602,0.565410277154832,"no",0,6,"belong in social group","FP010","010","run1","self","social",2.993,0,"no","positive"
18,3,110.619,0.371325855778923,"yes",0,5,"feel unimportant","FP010","010","run1","self","ill-being",2.465,1,"yes","negative"
19,6,125.318,0.037851150466038,"yes",0,1,"sad","FP010","010","run1","change","ill-being",1.766,1,"yes","negative"
20,4,130.335,0.751178388030361,"yes",0,5,"interested in life","FP010","010","run1","change","well-being",3.604,1,"yes","positive"
21,5,135.352,-0.0639922154789224,"yes",0,3,"have good friends","FP010","010","run1","change","social",1.595,1,"yes","positive"
22,5,140.295,0.42040574905367,"yes",0,1,"loved","FP010","010","run1","change","social",2.589,1,"yes","positive"
23,4,145.284,-0.183029956444202,"yes",0,3,"positive","FP010","010","run1","change","well-being",1.416,1,"yes","positive"
24,6,150.236,0.303780791117914,"yes",0,4,"feel rejected","FP010","010","run1","change","ill-being",2.304,1,"yes","negative"
25,2,165.047,0.54754362963486,"yes",1,4,"isolated","FP010","010","run1","self","social",2.94,0,"no","negative"
26,1,170.034,0.167268770355254,"yes",0,6,"live a meaningful life","FP010","010","run1","self","well-being",2.01,1,"yes","positive"
27,1,174.985,-0.115450512754398,"yes",0,2,"joyful","FP010","010","run1","self","well-being",1.515,1,"yes","positive"
28,3,179.923,-0.138823863939707,"no",0,2,"fearful","FP010","010","run1","self","ill-being",1.48,0,"no","negative"
29,2,184.911,-0.190828648930021,"yes",0,5,"comfortable with friends","FP010","010","run1","self","social",1.405,1,"yes","positive"
30,2,189.852,-0.211685212204578,"yes",0,3,"am cared for","FP010","010","run1","self","social",1.376,1,"yes","positive"
31,5,204.551,-0.0478227089621912,"yes",0,6,"have warm relationships","FP010","010","run1","change","social",1.621,1,"yes","positive"
32,5,209.645,-0.0919660675213285,"yes",0,7,"have trusting relationships","FP010","010","run1","change","social",1.551,1,"yes","positive"
33,6,214.6,-0.518937380850456,"yes",0,1,"stressed","FP010","010","run1","change","ill-being",1.012,1,"yes","negative"
34,5,219.552,0.315860316772516,"yes",0,4,"feel encouraged","FP010","010","run1","change","social",2.332,1,"yes","positive"
35,4,224.501,0.376989301337323,"yes",0,1,"proud","FP010","010","run1","change","well-being",2.479,1,"yes","positive"
36,4,229.484,-0.045973709976244,"yes",0,4,"engaged in tasks","FP010","010","run1","change","well-being",1.624,1,"yes","positive"
1,3,5.056,-0.268501687248239,"yes",0,2,"anxious","FP010","010","run2","self","ill-being",1.3,1,"yes","negative"
2,3,10.039,0.203902903535034,"no",0,3,"overwhelmed","FP010","010","run2","self","ill-being",2.085,0,"no","negative"
3,2,15.205,-0.390234821975985,"yes",0,2,"trusted","FP010","010","run2","self","social",1.151,1,"yes","positive"
4,2,20.221,-0.031910500520227,"yes",0,3,"have good friends","FP010","010","run2","self","social",1.647,1,"yes","positive"
5,1,25.171,-0.381584248999976,"yes",0,3,"achieve goals","FP010","010","run2","self","well-being",1.161,1,"yes","positive"
6,1,30.269,-0.230761359265392,"yes",0,2,"hopeful","FP010","010","run2","self","well-being",1.35,1,"yes","positive"
7,4,44.922,-0.069650828503074,"yes",0,2,"happy","FP010","010","run2","change","well-being",1.586,1,"yes","positive"
8,4,49.939,0.0750880171418377,"yes",0,6,"live a purposeful life","FP010","010","run2","change","well-being",1.833,1,"yes","positive"
9,6,54.92,-0.0887475259595303,"yes",1,2,"lonely","FP010","010","run2","change","social",1.556,0,"no","negative"
10,6,59.905,-0.136798888559935,"yes",0,3,"feel worthless","FP010","010","run2","change","ill-being",1.483,1,"yes","negative"
11,5,64.844,-0.695740594905964,"yes",0,2,"angry","FP010","010","run2","change","ill-being",0.848,1,"yes","negative"
12,6,69.865,-0.512044197475143,"yes",0,2,"nervous","FP010","010","run2","change","ill-being",1.019,1,"yes","negative"
13,3,84.521,0.985359578996191,"no",0,5,"unable to cope","FP010","010","run2","self","ill-being",4.555,0,"no","negative"
14,3,89.488,0.27739403594472,"yes",0,1,"sad","FP010","010","run2","self","ill-being",2.244,1,"yes","negative"
15,1,94.654,-0.103639351826053,"yes",0,5,"interested in life","FP010","010","run2","self","well-being",1.533,1,"yes","positive"
16,1,99.753,-0.751512622831353,"yes",0,3,"positive","FP010","010","run2","self","well-being",0.802,1,"yes","positive"
17,2,104.704,-0.810579854518334,"yes",0,1,"loved","FP010","010","run2","self","social",0.756,1,"yes","positive"
18,3,110.027,0.573397008461194,"yes",0,4,"feel rejected","FP010","010","run2","self","ill-being",3.017,1,"yes","negative"
19,6,124.687,-0.00436384856473193,"yes",0,3,"feel useless","FP010","010","run2","change","ill-being",1.693,1,"yes","negative"
20,4,129.637,-0.418430522385942,"yes",0,5,"satisfied with life","FP010","010","run2","change","well-being",1.119,1,"yes","positive"
21,5,134.621,-0.0126675736203264,"yes",0,3,"helped by friends","FP010","010","run2","change","social",1.679,1,"yes","positive"
22,5,139.598,0.844872895464644,"yes",0,6,"belong in social group","FP010","010","run2","change","social",3.958,1,"yes","positive"
23,4,144.585,0.755331792865875,"yes",0,3,"like myself","FP010","010","run2","change","well-being",3.619,1,"yes","positive"
24,6,149.537,-0.287919773105341,"yes",0,5,"feel unimportant","FP010","010","run2","change","ill-being",1.275,1,"yes","negative"
25,2,164.236,0.113090984653443,"yes",0,6,"have warm relationships","FP010","010","run2","self","social",1.904,1,"yes","positive"
26,1,169.187,-0.545979589525778,"yes",0,1,"proud","FP010","010","run2","self","well-being",0.985,1,"yes","positive"
27,1,174.203,-0.521906210344258,"yes",0,4,"engaged in tasks","FP010","010","run2","self","well-being",1.009,1,"yes","positive"
28,3,179.143,-0.331195756587163,"yes",0,1,"stressed","FP010","010","run2","self","ill-being",1.221,1,"yes","negative"
29,2,184.164,-0.0073215555419649,"yes",0,7,"have trusting relationships","FP010","010","run2","self","social",1.688,1,"yes","positive"
30,2,189.15,0.253035592112679,"yes",0,4,"feel encouraged","FP010","010","run2","self","social",2.19,1,"yes","positive"
31,5,203.852,0.0739963139766434,"yes",1,4,"isolated","FP010","010","run2","change","social",1.831,0,"no","negative"
32,5,208.797,-0.12873974487308,"yes",0,5,"comfortable with friends","FP010","010","run2","change","social",1.495,1,"yes","positive"
33,6,214.119,-0.344386384773112,"yes",0,2,"fearful","FP010","010","run2","change","ill-being",1.205,1,"yes","negative"
34,5,219.219,0.286708807219267,"no",0,3,"am cared for","FP010","010","run2","change","social",2.265,0,"no","positive"
35,4,224.203,0.268890963902473,"yes",0,6,"live a meaningful life","FP010","010","run2","change","well-being",2.225,1,"yes","positive"
36,4,229.179,0.125617244472624,"yes",0,2,"joyful","FP010","010","run2","change","well-being",1.928,1,"yes","positive"
1,3,5.063,0.0663208376983039,"no",0,1,"sad","FP011","011","run1","self","ill-being",1.817,0,"no","negative"
2,3,10.046,-0.159302395283247,"no",0,3,"feel worthless","FP011","011","run1","self","ill-being",1.45,0,"no","negative"
3,2,14.996,0.708377466692125,"no",0,7,"have trusting relationships","FP011","011","run1","self","social",3.453,0,"no","positive"
4,2,19.977,-1.18479241912239,"yes",0,3,"have good friends","FP011","011","run1","self","social",0.52,1,"yes","positive"
5,1,25.312,-0.396335058758124,"yes",0,5,"interested in life","FP011","011","run1","self","well-being",1.144,1,"yes","positive"
6,1,30.263,-0.723237844363186,"yes",0,2,"happy","FP011","011","run1","self","well-being",0.825,1,"yes","positive"
7,4,45.311,0.632909662858793,"yes",0,4,"engaged in tasks","FP011","011","run1","change","well-being",3.202,1,"yes","positive"
8,4,50.296,-0.0906774075491803,"yes",0,3,"positive","FP011","011","run1","change","well-being",1.553,1,"yes","positive"
9,6,55.312,0.166771134117067,"yes",0,3,"feel useless","FP011","011","run1","change","ill-being",2.009,1,"yes","negative"
10,6,60.287,-0.246439171984622,"yes",0,3,"overwhelmed","FP011","011","run1","change","ill-being",1.329,1,"yes","negative"
11,5,65.228,-0.157924035313126,"yes",1,4,"isolated","FP011","011","run1","change","social",1.452,0,"no","negative"
12,6,70.328,-0.361967415253916,"yes",0,1,"stressed","FP011","011","run1","change","ill-being",1.184,1,"yes","negative"
13,3,85.129,-0.0410596951738151,"no",0,5,"feel unimportant","FP011","011","run1","self","ill-being",1.632,0,"no","negative"
14,3,90.076,-0.311730421799059,"no",1,2,"lonely","FP011","011","run1","self","social",1.245,1,"yes","negative"
15,1,95.029,-0.443771244864797,"yes",0,2,"joyful","FP011","011","run1","self","well-being",1.091,1,"yes","positive"
16,1,100.045,0.0406784070849662,"yes",0,6,"live a purposeful life","FP011","011","run1","self","well-being",1.771,1,"yes","positive"
17,2,104.986,-0.200843038774424,"yes",0,4,"feel encouraged","FP011","011","run1","self","social",1.391,1,"yes","positive"
18,3,109.928,-0.0810650297875141,"no",0,2,"fearful","FP011","011","run1","self","ill-being",1.568,0,"no","negative"
19,6,124.662,0.355789975028734,"yes",0,5,"unable to cope","FP011","011","run1","change","ill-being",2.427,1,"yes","negative"
20,4,129.605,0.102531224438441,"yes",0,2,"hopeful","FP011","011","run1","change","well-being",1.884,1,"yes","positive"
21,5,134.625,-0.13343301530483,"yes",0,2,"angry","FP011","011","run1","change","ill-being",1.488,1,"yes","negative"
22,5,139.645,0.502674340208665,"yes",0,3,"helped by friends","FP011","011","run1","change","social",2.811,1,"yes","positive"
23,4,144.745,-0.0971373783347065,"yes",0,1,"proud","FP011","011","run1","change","well-being",1.543,1,"yes","positive"
24,6,149.728,0.26167397272225,"yes",0,4,"feel rejected","FP011","011","run1","change","ill-being",2.209,1,"yes","negative"
25,2,164.428,0.0729034176929984,"yes",0,3,"am cared for","FP011","011","run1","self","social",1.829,1,"yes","positive"
26,1,169.411,-0.162064827979157,"yes",0,5,"satisfied with life","FP011","011","run1","self","well-being",1.446,1,"yes","positive"
27,1,174.352,-0.271583353785647,"yes",0,3,"achieve goals","FP011","011","run1","self","well-being",1.296,1,"yes","positive"
28,3,179.289,-0.139499767987067,"no",0,2,"anxious","FP011","011","run1","self","ill-being",1.479,0,"no","negative"
29,2,184.244,0.115189621310364,"yes",0,6,"have warm relationships","FP011","011","run1","self","social",1.908,1,"yes","positive"
30,2,189.261,0.191354476329922,"yes",0,6,"belong in social group","FP011","011","run1","self","social",2.059,1,"yes","positive"
31,5,204.142,0.258954116104476,"yes",0,2,"trusted","FP011","011","run1","change","social",2.203,1,"yes","positive"
32,5,209.127,-0.187276247325653,"yes",0,1,"loved","FP011","011","run1","change","social",1.41,1,"yes","positive"
33,6,214.065,-0.302933883669723,"yes",0,2,"nervous","FP011","011","run1","change","ill-being",1.256,1,"yes","negative"
34,5,219.052,0.0591404699247017,"yes",0,5,"comfortable with friends","FP011","011","run1","change","social",1.804,1,"yes","positive"
35,4,224.073,0.741139263002033,"yes",0,6,"live a meaningful life","FP011","011","run1","change","well-being",3.568,1,"yes","positive"
36,4,229.026,0.917228810309607,"yes",0,3,"like myself","FP011","011","run1","change","well-being",4.255,1,"yes","positive"
1,3,5.049,0.379809041372789,"no",0,3,"feel useless","FP011","011","run2","self","ill-being",2.486,0,"no","negative"
2,3,10.002,-0.331195756587163,"no",0,3,"overwhelmed","FP011","011","run2","self","ill-being",1.221,0,"no","negative"
3,2,14.984,-0.349378075670353,"no",1,4,"isolated","FP011","011","run2","self","social",1.199,1,"yes","negative"
4,2,20,-0.715991435842419,"no",0,2,"angry","FP011","011","run2","self","ill-being",0.831,0,"no","negative"
5,1,25.017,0.347099665836757,"yes",0,4,"engaged in tasks","FP011","011","run2","self","well-being",2.406,1,"yes","positive"
6,1,30.116,-0.730537146844798,"yes",0,3,"positive","FP011","011","run2","self","well-being",0.819,1,"yes","positive"
7,4,44.81,0.372947258647312,"yes",0,5,"interested in life","FP011","011","run2","change","well-being",2.469,1,"yes","positive"
8,4,49.75,-0.431020616746014,"yes",0,2,"happy","FP011","011","run2","change","well-being",1.105,1,"yes","positive"
9,6,54.766,0.209641800204053,"yes",0,1,"sad","FP011","011","run2","change","ill-being",2.097,1,"yes","negative"
10,6,59.75,-0.199406256918062,"yes",0,3,"feel worthless","FP011","011","run2","change","ill-being",1.393,1,"yes","negative"
11,5,64.85,0.441805113594532,"yes",0,7,"have trusting relationships","FP011","011","run2","change","social",2.645,1,"yes","positive"
12,6,69.794,-0.0138594688746584,"yes",0,5,"feel unimportant","FP011","011","run2","change","ill-being",1.677,1,"yes","negative"
13,3,84.684,0.511528656954151,"no",0,1,"stressed","FP011","011","run2","self","ill-being",2.836,0,"no","negative"
14,3,89.666,0.156766048156105,"no",0,5,"unable to cope","FP011","011","run2","self","ill-being",1.989,0,"no","negative"
15,1,94.612,-0.488764775697095,"yes",0,2,"hopeful","FP011","011","run2","self","well-being",1.043,1,"yes","positive"
16,1,99.599,-0.605589497911667,"yes",0,1,"proud","FP011","011","run2","self","well-being",0.928,1,"yes","positive"
17,2,104.921,0.165775118098471,"yes",0,3,"helped by friends","FP011","011","run2","self","social",2.007,1,"yes","positive"
18,3,109.899,0.111514111790562,"no",0,4,"feel rejected","FP011","011","run2","self","ill-being",1.901,0,"no","negative"
19,6,124.566,-0.210958731969212,"no",1,2,"lonely","FP011","011","run2","change","social",1.377,1,"yes","negative"
20,4,129.549,-0.198688639377398,"yes",0,2,"joyful","FP011","011","run2","change","well-being",1.394,1,"yes","positive"
21,5,134.491,0.0685198490297406,"yes",0,3,"have good friends","FP011","011","run2","change","social",1.821,1,"yes","positive"
22,5,139.432,0.0913221399037212,"yes",0,4,"feel encouraged","FP011","011","run2","change","social",1.863,1,"yes","positive"
23,4,144.415,0.478550758147909,"yes",0,6,"live a purposeful life","FP011","011","run2","change","well-being",2.744,1,"yes","positive"
24,6,149.516,0.0891727570235767,"yes",0,2,"fearful","FP011","011","run2","change","ill-being",1.859,1,"yes","negative"
25,2,164.213,0.502674340208665,"yes",0,2,"trusted","FP011","011","run2","self","social",2.811,1,"yes","positive"
26,1,169.232,-0.36281236671948,"yes",0,6,"live a meaningful life","FP011","011","run2","self","well-being",1.183,1,"yes","positive"
27,1,174.215,-0.468830560796278,"yes",0,3,"like myself","FP011","011","run2","self","well-being",1.064,1,"yes","positive"
28,3,179.231,-0.0759759602800428,"no",0,2,"nervous","FP011","011","run2","self","ill-being",1.576,0,"no","negative"
29,2,184.177,-0.463207303241915,"yes",0,1,"loved","FP011","011","run2","self","social",1.07,1,"yes","positive"
30,2,189.197,-0.164834912852973,"yes",0,5,"comfortable with friends","FP011","011","run2","self","social",1.442,1,"yes","positive"
31,5,203.932,0.643472047480515,"no",0,3,"am cared for","FP011","011","run2","change","social",3.236,0,"no","positive"
32,5,208.877,0.0756334221185428,"yes",0,6,"have warm relationships","FP011","011","run2","change","social",1.834,1,"yes","positive"
33,6,213.831,0.34460278563817,"yes",0,2,"anxious","FP011","011","run2","change","ill-being",2.4,1,"yes","negative"
34,5,218.782,0.581320456979497,"no",0,6,"belong in social group","FP011","011","run2","change","social",3.041,0,"no","positive"
35,4,224.105,0.323549376440337,"yes",0,5,"satisfied with life","FP011","011","run2","change","well-being",2.35,1,"yes","positive"
36,4,229.047,0.8229052176986,"no",0,3,"achieve goals","FP011","011","run2","change","well-being",3.872,0,"no","positive"
1,3,5.066,0.647173470583701,"no",0,5,"unable to cope","FP012","012","run1","self","ill-being",3.248,0,"no","negative"
2,3,10.272,0.0929311507094219,"yes",0,1,"stressed","FP012","012","run1","self","ill-being",1.866,1,"yes","negative"
3,2,15.228,0.386624060733907,"yes",0,2,"trusted","FP012","012","run1","self","social",2.503,1,"yes","positive"
4,2,20.567,0.0977427077066438,"no",0,2,"angry","FP012","012","run1","self","ill-being",1.875,0,"no","negative"
5,1,25.623,0.187948975592793,"yes",0,3,"achieve goals","FP012","012","run1","self","well-being",2.052,1,"yes","positive"
6,1,30.628,0.0602485032790635,"no",0,2,"hopeful","FP012","012","run1","self","well-being",1.806,0,"no","positive"
7,4,45.312,0.450088293484147,"yes",0,5,"interested in life","FP012","012","run1","change","well-being",2.667,1,"yes","positive"
8,4,50.351,0.508350126995723,"yes",0,4,"engaged in tasks","FP012","012","run1","change","well-being",2.827,1,"yes","positive"
9,6,55.39,0.426182772630593,"no",1,2,"lonely","FP012","012","run1","change","social",2.604,1,"yes","negative"
10,6,60.346,0.341681857210506,"yes",0,2,"nervous","FP012","012","run1","change","ill-being",2.393,1,"yes","negative"
11,5,65.685,0.641306540060408,"no",1,4,"isolated","FP012","012","run1","change","social",3.229,1,"yes","negative"
12,6,70.691,0.205340718304662,"yes",0,2,"anxious","FP012","012","run1","change","ill-being",2.088,1,"yes","negative"
13,3,85.407,-0.0246509405074228,"yes",0,1,"sad","FP012","012","run1","self","ill-being",1.659,1,"yes","negative"
14,3,90.396,0.141057592392588,"no",0,4,"feel rejected","FP012","012","run1","self","ill-being",1.958,0,"no","negative"
15,1,95.352,0.63040809807709,"yes",0,3,"like myself","FP012","012","run1","self","well-being",3.194,1,"yes","positive"
16,1,100.358,0.059694640069114,"no",0,2,"happy","FP012","012","run1","self","well-being",1.805,0,"no","positive"
17,2,105.33,0.606967050105661,"yes",0,7,"have trusting relationships","FP012","012","run1","self","social",3.12,1,"yes","positive"
18,3,110.436,0.0201414616830923,"no",0,5,"feel unimportant","FP012","012","run1","self","ill-being",1.735,0,"no","negative"
19,6,125.169,0.507642412882674,"no",0,3,"feel useless","FP012","012","run1","change","ill-being",2.825,0,"no","negative"
20,4,130.208,0.202463018477047,"yes",0,2,"joyful","FP012","012","run1","change","well-being",2.082,1,"yes","positive"
21,5,135.181,-0.350212452022473,"yes",0,3,"have good friends","FP012","012","run1","change","social",1.198,1,"yes","positive"
22,5,140.22,0.54584150156433,"yes",0,3,"am cared for","FP012","012","run1","change","social",2.935,1,"yes","positive"
23,4,145.559,0.450088293484147,"yes",0,6,"live a meaningful life","FP012","012","run1","change","well-being",2.667,1,"yes","positive"
24,6,150.531,0.820578131968414,"no",0,2,"fearful","FP012","012","run1","change","ill-being",3.863,0,"no","negative"
25,2,165.265,0.155256613907251,"no",0,3,"helped by friends","FP012","012","run1","self","social",1.986,0,"no","positive"
26,1,170.254,-0.0527701525726584,"yes",0,6,"live a purposeful life","FP012","012","run1","self","well-being",1.613,1,"yes","positive"
27,1,175.209,0.596981462220714,"no",0,1,"proud","FP012","012","run1","self","well-being",3.089,0,"no","positive"
28,3,180.182,-0.413082916059347,"no",0,3,"feel worthless","FP012","012","run1","self","ill-being",1.125,0,"no","negative"
29,2,185.137,0.250749876831823,"no",0,6,"belong in social group","FP012","012","run1","self","social",2.185,0,"no","positive"
30,2,190.11,0.168760194941924,"yes",0,5,"comfortable with friends","FP012","012","run1","self","social",2.013,1,"yes","positive"
31,5,204.826,0.162281228844215,"yes",0,1,"loved","FP012","012","run1","change","social",2,1,"yes","positive"
32,5,209.865,0.748121556415651,"no",0,6,"have warm relationships","FP012","012","run1","change","social",3.593,0,"no","positive"
33,6,214.904,0.95843615947839,"no",0,3,"overwhelmed","FP012","012","run1","change","ill-being",4.434,0,"no","negative"
34,5,219.893,0.8900713528477,"yes",0,4,"feel encouraged","FP012","012","run1","change","social",4.141,1,"yes","positive"
35,4,224.899,0.0783559939064538,"no",0,3,"positive","FP012","012","run1","change","well-being",1.839,0,"no","positive"
36,4,230.088,0.672106352276622,"yes",0,5,"satisfied with life","FP012","012","run1","change","well-being",3.33,1,"yes","positive"
